task_order,stim_time,inter_stim_time,x_pos,y_pos,match,corr_key,main_loop.thisRepN,main_loop.thisTrialN,main_loop.thisN,main_loop.thisIndex,vSAT_loop.thisRepN,vSAT_loop.thisTrialN,vSAT_loop.thisN,vSAT_loop.thisIndex,inter_stim_text.started,inter_stim_text.stopped,vSAT_square.started,vSAT_square.stopped,stim_resp.keys,stim_resp.corr,stim_resp.rt,stim_resp.started,stim_resp.stopped,response_sound.started,response_sound.stopped,feedback_sound.started,feedback_sound.stopped,participant,session,date,expName,psychopyVersion,frameRate,
SAT_stims-16571317877910345.csv,0.028999999999999998,3,0,0,1,right,0,0,0,0,0,0,0,0,17.751881399999547,None,20.751849399999628,None,right,1,0.41147709999950166,20.785200899999836,None,20.868519939999807,None,21.23519547999986,None,03,001,2022_Jul_06_1622,vSAT,2021.2.3,59.994660475265285,
SAT_stims-16571317877910345.csv,0.05,3,0,0,1,right,0,0,0,0,0,1,1,1,21.751872599999842,None,24.751926299999468,None,right,1,0.2827185999994981,24.80192949999946,None,24.8852688400003,None,25.11857368000001,None,03,001,2022_Jul_06_1622,vSAT,2021.2.3,59.994660475265285,
SAT_stims-16571317877910345.csv,0.017,1,0,0,0,left,0,0,0,0,0,2,2,2,25.635278699999617,None,26.63528909999968,None,left,1,0.8318887999994331,26.66863420000027,None,26.75193453999973,None,27.518627540000217,None,03,001,2022_Jul_06_1622,vSAT,2021.2.3,59.994660475265285,
SAT_stims-16571317877910345.csv,0.028999999999999998,1,0,0,0,left,0,0,0,0,0,3,3,3,28.035287499999868,None,29.035334799999873,None,left,1,0.5440244000001258,29.068633099999715,None,29.1519652400003,None,29.635327940000117,None,03,001,2022_Jul_06_1622,vSAT,2021.2.3,59.994660475265285,
SAT_stims-16571317877910345.csv,0.05,3,0,0,1,right,0,0,0,0,0,4,4,4,30.152010599999812,None,33.15206599999965,None,right,1,0.2826368000005459,33.202029799999764,None,33.2853551399995,None,33.51873037999958,None,03,001,2022_Jul_06_1622,vSAT,2021.2.3,59.994660475265285,
SAT_stims-16571317877910345.csv,0.05,1,0,0,1,right,0,0,0,0,0,5,5,5,34.03540210000028,None,35.03541010000026,None,right,1,0.4472197999994023,35.085412200000064,None,35.16875373999947,None,35.56876237999968,None,03,001,2022_Jul_06_1622,vSAT,2021.2.3,59.994660475265285,
SAT_stims-16571317877910345.csv,0.028999999999999998,2,0,0,1,right,0,0,0,0,0,6,6,6,36.085399900000084,None,38.085439499999666,None,right,1,0.357839100000092,38.118789399999514,None,38.20212384000033,None,38.518784580000286,None,03,001,2022_Jul_06_1622,vSAT,2021.2.3,59.994660475265285,
SAT_stims-16571317877910345.csv,0.017,2,0,0,0,left,0,0,0,0,0,7,7,7,39.03548429999955,None,41.03551179999977,None,left,1,0.41579340000043885,41.06886370000029,None,41.15218534000005,None,41.51885757999953,None,03,001,2022_Jul_06_1622,vSAT,2021.2.3,59.994660475265285,
SAT_stims-16571317877910345.csv,0.017,3,0,0,0,left,0,0,0,0,0,8,8,8,42.035497799999575,None,45.03555669999969,None,left,1,0.5118274999995265,45.06889969999975,None,45.15223763999993,None,45.61891913999998,None,03,001,2022_Jul_06_1622,vSAT,2021.2.3,59.994660475265285,
SAT_stims-16571317877910345.csv,0.028999999999999998,2,0,0,0,left,0,0,0,0,0,9,9,9,46.13559489999989,None,48.13562480000019,None,left,1,0.9958213999998407,48.16893600000003,None,48.252294740000345,None,49.18562803999985,None,03,001,2022_Jul_06_1622,vSAT,2021.2.3,59.994660475265285,
SAT_stims-16571317877910345.csv,0.05,2,0,0,0,left,0,0,0,0,0,10,10,10,49.68566439999995,None,51.685680699999466,None,left,1,0.5011037999993277,51.735669300000154,None,51.819009740000276,None,52.26899397999951,None,03,001,2022_Jul_06_1622,vSAT,2021.2.3,59.994660475265285,
SAT_stims-16571317877910345.csv,0.017,3,0,0,0,left,0,0,0,0,0,11,11,11,52.78574070000013,None,55.78574149999986,None,left,1,0.5615564999998242,55.81906220000019,None,55.90241874000012,None,56.40240963999995,None,03,001,2022_Jul_06_1622,vSAT,2021.2.3,59.994660475265285,
SAT_stims-16571317877910345.csv,0.028999999999999998,2,0,0,1,right,0,0,0,0,0,12,12,12,56.91906370000015,None,58.91911280000022,None,right,1,0.2762517000001026,58.9524593999995,None,59.03578774000025,None,59.25247713999952,59.76911519999976,03,001,2022_Jul_06_1622,vSAT,2021.2.3,59.994660475265285,
SAT_stims-16571317877910345.csv,0.028999999999999998,3,0,0,1,right,0,0,0,0,0,13,13,13,59.7857826999998,None,62.78583230000004,None,left,0,0.265545999999631,62.81919420000031,None,62.90250873999967,None,63.11919357999996,None,03,001,2022_Jul_06_1622,vSAT,2021.2.3,59.994660475265285,
SAT_stims-16571317877910345.csv,0.017,2,0,0,0,left,0,0,0,0,0,14,14,14,63.635859199999686,None,65.63588340000024,None,left,1,0.6474584000006871,65.66921629999979,None,65.75252753999948,None,66.3358970399996,None,03,001,2022_Jul_06_1622,vSAT,2021.2.3,59.994660475265285,
SAT_stims-16571317877910345.csv,0.028999999999999998,1,0,0,1,right,0,0,0,0,0,15,15,15,66.83592539999972,None,67.83592099999987,None,right,1,0.31945509999968635,67.86928089999947,None,67.95260194000011,None,68.23593358000034,None,03,001,2022_Jul_06_1622,vSAT,2021.2.3,59.994660475265285,
SAT_stims-16571317877910345.csv,0.028999999999999998,1,0,0,1,right,0,0,0,0,0,16,16,16,68.73592000000008,None,69.73595849999947,None,right,1,0.2915430999992168,69.7692992000002,None,69.85261913999975,None,70.10263567999954,None,03,001,2022_Jul_06_1622,vSAT,2021.2.3,59.994660475265285,
SAT_stims-16571317877910345.csv,0.028999999999999998,2,0,0,1,right,0,0,0,0,0,17,17,17,70.61929729999974,None,72.6193473000003,None,right,1,0.3038890999996511,72.65266059999976,None,72.73601223999967,None,73.00264937999981,None,03,001,2022_Jul_06_1622,vSAT,2021.2.3,59.994660475265285,
SAT_stims-16571317877910345.csv,0.017,3,0,0,0,left,0,0,0,0,0,18,18,18,73.51932560000023,None,76.51940659999946,None,left,1,0.7559061000001748,76.55273690000013,None,76.63606783999975,None,77.33609514000008,None,03,001,2022_Jul_06_1622,vSAT,2021.2.3,59.994660475265285,
SAT_stims-16571317877910345.csv,0.028999999999999998,2,0,0,1,right,0,0,0,0,0,19,19,19,77.83611680000013,None,79.83609969999998,None,right,1,0.23917010000059236,79.86944849999963,None,79.95282033999965,None,80.1527849799997,None,03,001,2022_Jul_06_1622,vSAT,2021.2.3,59.994660475265285,
SAT_stims-16571317877910345.csv,0.05,2,0,0,0,left,0,0,0,0,0,20,20,20,80.6694365000003,None,82.66949479999948,None,left,1,0.5732531000003291,82.71948759999941,None,82.80283403999974,None,83.31950113999946,None,03,001,2022_Jul_06_1622,vSAT,2021.2.3,59.994660475265285,
SAT_stims-16571317877910345.csv,0.05,3,0,0,1,right,0,0,0,0,0,21,21,21,83.83621669999957,None,86.83622060000016,None,right,1,0.3424950999997236,86.88624199999958,None,86.96955653999984,None,87.26961028000022,None,03,001,2022_Jul_06_1622,vSAT,2021.2.3,59.994660475265285,
SAT_stims-16571317877910345.csv,0.05,1,0,0,1,right,0,0,0,0,0,22,22,22,87.7862299999997,None,88.78622110000015,None,right,1,0.4883457999994789,88.83626910000021,None,88.91959643999971,None,89.36959398000016,None,03,001,2022_Jul_06_1622,vSAT,2021.2.3,59.994660475265285,
SAT_stims-16571317877910345.csv,0.028999999999999998,1,0,0,1,right,0,0,0,0,0,23,23,23,89.88628079999944,None,90.88628400000016,None,right,1,0.26097240000035526,90.91962340000009,None,91.00294294000022,None,91.21962817999992,None,03,001,2022_Jul_06_1622,vSAT,2021.2.3,59.994660475265285,
SAT_stims-16571317877910345.csv,0.028999999999999998,2,0,0,0,left,0,0,0,0,0,24,24,24,91.73627849999957,None,93.7363365000001,None,left,1,0.4031115999996473,93.76967710000008,None,93.85301153999998,None,94.2030032399999,94.71968490000017,03,001,2022_Jul_06_1622,vSAT,2021.2.3,59.994660475265285,
SAT_stims-16571317877910345.csv,0.017,2,0,0,0,left,0,0,0,0,0,25,25,25,94.73637119999967,None,96.73637570000028,None,left,1,0.5228995999996187,96.76970319999964,None,96.8530562400002,None,97.31973363999995,None,03,001,2022_Jul_06_1622,vSAT,2021.2.3,59.994660475265285,
SAT_stims-16571317877910345.csv,0.017,1,0,0,0,left,0,0,0,0,0,26,26,26,97.83640190000006,None,98.83642009999949,None,left,1,0.5351036000001841,98.86974829999963,None,98.95308114000008,None,99.41976123999947,None,03,001,2022_Jul_06_1622,vSAT,2021.2.3,59.994660475265285,
SAT_stims-16571317877910345.csv,0.028999999999999998,2,0,0,0,left,0,0,0,0,0,27,27,27,99.93642279999949,None,101.9364999999998,None,left,1,0.4269781000002695,101.9698013999996,None,102.05310904000007,None,102.43647707999952,None,03,001,2022_Jul_06_1622,vSAT,2021.2.3,59.994660475265285,
SAT_stims-16571317877910345.csv,0.05,2,0,0,0,left,0,0,0,0,0,28,28,28,102.93647129999954,None,104.93650559999969,None,left,1,0.4342802999999549,104.98647259999962,None,105.06983544000022,None,105.4531883800002,None,03,001,2022_Jul_06_1622,vSAT,2021.2.3,59.994660475265285,
SAT_stims-16571317877910345.csv,0.017,3,0,0,1,right,0,0,0,0,0,29,29,29,105.96990129999995,None,108.96990240000014,None,right,1,0.3375663999995595,109.00322309999956,None,109.08658923999982,None,109.38657317999986,None,03,001,2022_Jul_06_1622,vSAT,2021.2.3,59.994660475265285,
SAT_stims-16571317877910345.csv,,,,,,,0,0,0,0,,,,,,,,,,,,,,,,,,03,001,2022_Jul_06_1622,vSAT,2021.2.3,59.994660475265285,
SAT_stims-16571317878055692.csv,0.05,1,0,0,0,left,0,1,1,1,0,0,0,0,113.70337319999999,None,114.70333140000002,None,left,1,0.6674845000006826,114.75333109999974,None,114.83668044000032,None,115.43664524000005,None,03,001,2022_Jul_06_1622,vSAT,2021.2.3,59.994660475265285,
SAT_stims-16571317878055692.csv,0.017,3,0,0,1,right,0,1,1,1,0,1,1,1,115.95334819999971,None,118.95337240000026,None,right,1,0.25803019999966637,118.98671939999986,None,119.07003923999955,None,119.28673438000004,None,03,001,2022_Jul_06_1622,vSAT,2021.2.3,59.994660475265285,
SAT_stims-16571317878055692.csv,0.028999999999999998,3,0,0,1,right,0,1,1,1,0,2,2,2,119.8033975999997,None,122.80344999999943,None,right,1,0.2477550000003248,122.83679549999943,None,122.92013234000032,None,123.12011178000029,None,03,001,2022_Jul_06_1622,vSAT,2021.2.3,59.994660475265285,
SAT_stims-16571317878055692.csv,0.05,3,0,0,1,right,0,1,1,1,0,3,3,3,123.6368010999995,None,126.63684540000031,None,right,1,0.2700548000002527,126.68683510000028,None,126.77019203999961,None,127.00349467999985,None,03,001,2022_Jul_06_1622,vSAT,2021.2.3,59.994660475265285,
SAT_stims-16571317878055692.csv,0.05,1,0,0,1,right,0,1,1,1,0,4,4,4,127.52018719999978,None,128.52018289999978,None,right,1,0.3065131000003021,128.57019440000022,None,128.6535400399999,None,128.92019937999993,None,03,001,2022_Jul_06_1622,vSAT,2021.2.3,59.994660475265285,
SAT_stims-16571317878055692.csv,0.028999999999999998,3,0,0,0,left,0,1,1,1,0,5,5,5,129.43689389999963,None,132.4369446999999,None,left,1,0.6303717000000688,132.47028489999957,None,132.55359343999962,None,133.12028784000003,None,03,001,2022_Jul_06_1622,vSAT,2021.2.3,59.994660475265285,
SAT_stims-16571317878055692.csv,0.028999999999999998,3,0,0,0,left,0,1,1,1,0,6,6,6,133.63692399999945,None,136.63700470000003,None,left,1,0.4462776999998823,136.67036199999984,None,136.75368113999966,None,137.15367747999989,None,03,001,2022_Jul_06_1622,vSAT,2021.2.3,59.994660475265285,
SAT_stims-16571317878055692.csv,0.028999999999999998,2,0,0,0,left,0,1,1,1,0,7,7,7,137.67039250000016,None,139.6703752000003,None,left,1,0.4369826000001922,139.70371429999977,None,139.78704983999987,None,140.18704837999957,None,03,001,2022_Jul_06_1622,vSAT,2021.2.3,59.994660475265285,
SAT_stims-16571317878055692.csv,0.028999999999999998,2,0,0,0,left,0,1,1,1,0,8,8,8,140.70374009999978,None,142.70375369999965,None,left,1,0.41156559999944875,142.73709820000022,None,142.82042303999978,None,143.18711128000012,None,03,001,2022_Jul_06_1622,vSAT,2021.2.3,59.994660475265285,
SAT_stims-16571317878055692.csv,0.017,3,0,0,1,right,0,1,1,1,0,9,9,9,143.70377389999976,None,146.70382009999958,None,right,1,0.23554479999984324,146.73715879999963,None,146.82053024000024,None,147.02048897999993,None,03,001,2022_Jul_06_1622,vSAT,2021.2.3,59.994660475265285,
SAT_stims-16571317878055692.csv,0.017,1,0,0,0,left,0,1,1,1,0,10,10,10,147.5371895999997,None,148.5371944999997,None,left,1,0.6101410999999644,148.57050869999966,None,148.65386273999965,None,149.20387263999973,None,03,001,2022_Jul_06_1622,vSAT,2021.2.3,59.994660475265285,
SAT_stims-16571317878055692.csv,0.05,1,0,0,1,right,0,1,1,1,0,11,11,11,149.72055050000017,None,150.72056789999988,None,right,1,0.3941237999997611,150.77053999999953,None,150.85388814000007,None,151.2039074799997,None,03,001,2022_Jul_06_1622,vSAT,2021.2.3,59.994660475265285,
SAT_stims-16571317878055692.csv,0.05,1,0,0,1,right,0,1,1,1,0,12,12,12,151.72059809999973,None,152.72057159999986,None,right,1,0.2660155000003215,152.77057650000006,None,152.85396083999976,None,153.07058947999957,None,03,001,2022_Jul_06_1622,vSAT,2021.2.3,59.994660475265285,
SAT_stims-16571317878055692.csv,0.028999999999999998,3,0,0,0,left,0,1,1,1,0,13,13,13,153.58728090000022,None,156.5873177000003,None,left,1,0.5759477999999945,156.62064980000014,None,156.70398203999966,None,157.22067134000017,None,03,001,2022_Jul_06_1622,vSAT,2021.2.3,59.994660475265285,
SAT_stims-16571317878055692.csv,0.017,2,0,0,1,right,0,1,1,1,0,14,14,14,157.73733579999953,None,159.73737290000008,None,right,1,0.38610370000060357,159.77068959999997,None,159.8540364399997,None,160.20403928000013,None,03,001,2022_Jul_06_1622,vSAT,2021.2.3,59.994660475265285,
SAT_stims-16571317878055692.csv,0.017,1,0,0,1,right,0,1,1,1,0,15,15,15,160.72070540000004,None,161.72071899999992,None,right,1,0.25875429999996413,161.75402979999944,None,161.83740273999965,None,162.05406598000008,None,03,001,2022_Jul_06_1622,vSAT,2021.2.3,59.994660475265285,
SAT_stims-16571317878055692.csv,0.028999999999999998,1,0,0,1,right,0,1,1,1,0,16,16,16,162.57075410000016,None,163.5707881999997,None,right,1,0.21674129999973957,163.60410059999958,None,163.68743464000008,None,163.85410168000016,None,03,001,2022_Jul_06_1622,vSAT,2021.2.3,59.994660475265285,
SAT_stims-16571317878055692.csv,0.05,1,0,0,1,right,0,1,1,1,0,17,17,17,164.37078719999954,None,165.3707873000003,None,right,1,0.2560984000001554,165.42079459999968,None,165.50412893999973,None,165.72079158000014,None,03,001,2022_Jul_06_1622,vSAT,2021.2.3,59.994660475265285,
SAT_stims-16571317878055692.csv,0.017,2,0,0,1,right,0,1,1,1,0,18,18,18,166.23749510000016,None,168.23747689999982,None,right,1,0.36591689999931987,168.2708475999998,None,168.3541706400002,None,168.67082768000017,None,03,001,2022_Jul_06_1622,vSAT,2021.2.3,59.994660475265285,
SAT_stims-16571317878055692.csv,0.05,1,0,0,0,left,0,1,1,1,0,19,19,19,169.1875227999999,None,170.18755280000005,None,left,1,0.4951240999998845,170.23752530000002,None,170.32085603999994,None,170.75419423999946,171.25422359999993,03,001,2022_Jul_06_1622,vSAT,2021.2.3,59.994660475265285,
SAT_stims-16571317878055692.csv,0.028999999999999998,3,0,0,0,left,0,1,1,1,0,20,20,20,171.27087949999986,None,174.27091000000019,None,left,1,0.4765790999999808,174.30425749999995,None,174.3875974399999,None,174.8209287800002,None,03,001,2022_Jul_06_1622,vSAT,2021.2.3,59.994660475265285,
SAT_stims-16571317878055692.csv,0.017,2,0,0,1,right,0,1,1,1,0,21,21,21,175.33761869999944,None,177.33764389999942,None,right,1,0.22567810000055033,177.37098220000007,None,177.45430924000001,None,177.63768197999997,None,03,001,2022_Jul_06_1622,vSAT,2021.2.3,59.994660475265285,
SAT_stims-16571317878055692.csv,0.05,1,0,0,1,right,0,1,1,1,0,22,22,22,178.1542956000003,None,179.15434670000013,None,right,1,0.232298300000366,179.2043163999997,None,179.28764194000004,None,179.4710058800003,None,03,001,2022_Jul_06_1622,vSAT,2021.2.3,59.994660475265285,
SAT_stims-16571317878055692.csv,0.017,1,0,0,1,right,0,1,1,1,0,23,23,23,179.98767969999972,None,180.9877021000002,None,right,1,0.19160069999998086,181.02103579999948,None,181.10431673999946,None,181.25434298,None,03,001,2022_Jul_06_1622,vSAT,2021.2.3,59.994660475265285,
SAT_stims-16571317878055692.csv,0.028999999999999998,1,0,0,1,right,0,1,1,1,0,24,24,24,181.7710393999996,None,182.77105839999967,None,right,1,0.21612590000040655,182.8044018999999,None,182.88772333999995,None,183.05437507999994,None,03,001,2022_Jul_06_1622,vSAT,2021.2.3,59.994660475265285,
SAT_stims-16571317878055692.csv,0.017,3,0,0,0,left,0,1,1,1,0,25,25,25,183.57107649999944,None,186.5711099,None,left,1,0.5123382000001584,186.6044179999999,None,186.68778654000025,None,187.15446394,None,03,001,2022_Jul_06_1622,vSAT,2021.2.3,59.994660475265285,
SAT_stims-16571317878055692.csv,0.05,1,0,0,0,left,0,1,1,1,0,26,26,26,187.67110289999982,None,188.67114729999957,None,left,1,0.37960190000012517,188.72117590000016,None,188.80449013999996,None,189.13782058000032,None,03,001,2022_Jul_06_1622,vSAT,2021.2.3,59.994660475265285,
SAT_stims-16571317878055692.csv,0.05,2,0,0,1,right,0,1,1,1,0,27,27,27,189.65450229999988,None,191.65453520000028,None,right,1,0.212086200000158,191.70454749999953,None,191.7878607399999,None,191.95454478000028,None,03,001,2022_Jul_06_1622,vSAT,2021.2.3,59.994660475265285,
SAT_stims-16571317878055692.csv,0.028999999999999998,3,0,0,1,right,0,1,1,1,0,28,28,28,192.47120509999968,None,195.47122070000023,None,right,1,0.39604309999958787,195.50460039999962,None,195.58790073999998,None,195.9379452799996,None,03,001,2022_Jul_06_1622,vSAT,2021.2.3,59.994660475265285,
SAT_stims-16571317878055692.csv,0.017,1,0,0,0,left,0,1,1,1,0,29,29,29,196.45460430000003,None,197.45459630000005,None,left,1,0.55684520000068,197.4879530999997,None,197.5712746399996,198.0046327,198.07128803999976,None,03,001,2022_Jul_06_1622,vSAT,2021.2.3,59.994660475265285,
SAT_stims-16571317878055692.csv,,,,,,,0,1,1,1,,,,,,,,,,,,,,,,,,03,001,2022_Jul_06_1622,vSAT,2021.2.3,59.994660475265285,
vSAT_stims-16571317878217099.csv,0.017,1,-0.25,0.25,1,right,0,2,2,2,0,0,0,0,202.10466610000003,None,203.1047212000003,None,right,1,0.41068989999985206,203.13804759999948,None,203.2213725399998,None,203.58803387999995,None,03,001,2022_Jul_06_1622,vSAT,2021.2.3,59.994660475265285,
vSAT_stims-16571317878217099.csv,0.028999999999999998,1,0.0,0.0,0,left,0,2,2,2,0,1,1,1,204.10472339999978,None,205.10474710000017,None,left,1,0.5547489000000496,205.1380481999995,None,205.22139893999983,None,205.72142194000034,None,03,001,2022_Jul_06_1622,vSAT,2021.2.3,59.994660475265285,
vSAT_stims-16571317878217099.csv,0.017,3,-0.25,0.25,1,right,0,2,2,2,0,2,2,2,206.2381150000001,None,209.2381419000003,None,right,1,0.22921429999951215,209.27143819999947,None,209.3547904400003,None,209.53813097999972,None,03,001,2022_Jul_06_1622,vSAT,2021.2.3,59.994660475265285,
vSAT_stims-16571317878217099.csv,0.05,3,-0.25,-0.25,1,right,0,2,2,2,0,3,3,3,210.05482399999983,None,213.0548705000001,None,left,0,0.34772999999950116,213.10485429999972,None,213.18816944,None,213.48818607999982,None,03,001,2022_Jul_06_1622,vSAT,2021.2.3,59.994660475265285,
vSAT_stims-16571317878217099.csv,0.017,3,-0.25,0.25,1,right,0,2,2,2,0,4,4,4,214.00488099999984,None,217.00494249999974,None,right,1,0.3984213000003365,217.03826589999971,None,217.12161623999972,None,217.47159977999962,None,03,001,2022_Jul_06_1622,vSAT,2021.2.3,59.994660475265285,
vSAT_stims-16571317878217099.csv,0.017,1,-0.25,-0.25,0,left,0,2,2,2,0,5,5,5,217.9882451000003,None,218.98831969999992,None,left,1,0.5269834999999148,219.02163130000008,None,219.10496233999956,None,219.57163724000029,None,03,001,2022_Jul_06_1622,vSAT,2021.2.3,59.994660475265285,
vSAT_stims-16571317878217099.csv,0.028999999999999998,2,0.25,0.25,0,left,0,2,2,2,0,6,6,6,220.0882974999995,None,222.0883361999995,None,left,1,0.5152840000000651,222.12167919999956,None,222.20501453999995,None,222.67165873999974,None,03,001,2022_Jul_06_1622,vSAT,2021.2.3,59.994660475265285,
vSAT_stims-16571317878217099.csv,0.05,2,0.0,0.0,0,left,0,2,2,2,0,7,7,7,223.18833900000027,None,225.1883855999995,None,left,1,0.5342706000001272,225.23838729999989,None,225.32171733999994,None,225.78839353999965,None,03,001,2022_Jul_06_1622,vSAT,2021.2.3,59.994660475265285,
vSAT_stims-16571317878217099.csv,0.05,1,0.25,0.25,1,right,0,2,2,2,0,8,8,8,226.30506629999945,None,227.30507409999973,None,right,1,0.30575599999974656,227.35507979999966,None,227.43842713999956,None,227.70510037999992,None,03,001,2022_Jul_06_1622,vSAT,2021.2.3,59.994660475265285,
vSAT_stims-16571317878217099.csv,0.05,3,-0.25,-0.25,1,right,0,2,2,2,0,9,9,9,228.2217555999996,None,231.22178239999994,None,right,1,0.4369065999999293,231.27181109999947,None,231.35514843999962,None,231.75518028000005,None,03,001,2022_Jul_06_1622,vSAT,2021.2.3,59.994660475265285,
vSAT_stims-16571317878217099.csv,0.028999999999999998,2,0.0,0.0,1,right,0,2,2,2,0,10,10,10,232.27180489999955,None,234.27187009999943,None,right,1,0.31544899999971676,234.30519079999976,None,234.38852223999956,None,234.6551873800001,None,03,001,2022_Jul_06_1622,vSAT,2021.2.3,59.994660475265285,
vSAT_stims-16571317878217099.csv,0.017,3,0.25,0.25,1,right,0,2,2,2,0,11,11,11,235.17185999999947,None,238.1718867999998,None,right,1,0.2713515000004918,238.20526419999987,None,238.28855724000013,None,238.52193047999953,None,03,001,2022_Jul_06_1622,vSAT,2021.2.3,59.994660475265285,
vSAT_stims-16571317878217099.csv,0.028999999999999998,2,0.0,0.0,0,left,0,2,2,2,0,12,12,12,239.0386040000003,None,241.0386478999999,None,right,0,0.46054630000071484,241.07197009999982,None,241.15530323999982,None,241.5719418800001,None,03,001,2022_Jul_06_1622,vSAT,2021.2.3,59.994660475265285,
vSAT_stims-16571317878217099.csv,0.05,3,-0.25,0.25,1,right,0,2,2,2,0,13,13,13,242.08865289999994,None,245.08870229999957,None,right,1,0.29813780000040424,245.13870159999988,None,245.22201054000024,None,245.47202768000005,None,03,001,2022_Jul_06_1622,vSAT,2021.2.3,59.994660475265285,
vSAT_stims-16571317878217099.csv,0.05,2,0.25,-0.25,1,right,0,2,2,2,0,14,14,14,245.9887080999997,None,247.9887491999998,None,right,1,0.37402209999982006,248.0387370999997,None,248.12209014000027,None,248.4554143799998,None,03,001,2022_Jul_06_1622,vSAT,2021.2.3,59.994660475265285,
vSAT_stims-16571317878217099.csv,0.05,2,0.25,0.25,0,left,0,2,2,2,0,15,15,15,248.9720682999996,None,250.97211040000002,None,left,1,0.462317699999403,251.02212450000025,None,251.10545964000002,None,251.52210768000003,None,03,001,2022_Jul_06_1622,vSAT,2021.2.3,59.994660475265285,
vSAT_stims-16571317878217099.csv,0.017,1,-0.25,0.25,0,left,0,2,2,2,0,16,16,16,252.0388052999997,None,253.03881339999953,None,left,1,0.5088359000001219,253.07215019999967,None,253.15549193999968,None,253.60550564000013,None,03,001,2022_Jul_06_1622,vSAT,2021.2.3,59.994660475265285,
vSAT_stims-16571317878217099.csv,0.017,1,-0.25,-0.25,1,right,0,2,2,2,0,17,17,17,254.12213379999957,None,255.1221859999996,None,right,1,0.4253595000000132,255.15551099999993,None,255.2388429399999,None,255.62217168000024,None,03,001,2022_Jul_06_1622,vSAT,2021.2.3,59.994660475265285,
vSAT_stims-16571317878217099.csv,0.017,2,-0.25,0.25,0,left,0,2,2,2,0,18,18,18,256.1388516999996,None,258.1388914999998,None,left,1,0.544368900000336,258.1722374000001,None,258.25557193999987,None,258.7389402399996,None,03,001,2022_Jul_06_1622,vSAT,2021.2.3,59.994660475265285,
vSAT_stims-16571317878217099.csv,0.017,1,0.25,-0.25,0,left,0,2,2,2,0,19,19,19,259.25555859999986,None,260.2555927000003,None,left,1,0.4916406000002098,260.28893059999973,None,260.37227834,None,260.8222430799999,None,03,001,2022_Jul_06_1622,vSAT,2021.2.3,59.994660475265285,
vSAT_stims-16571317878217099.csv,0.028999999999999998,3,-0.25,0.25,1,right,0,2,2,2,0,20,20,20,261.33894390000023,None,264.3389986000002,None,right,1,0.26450540000041656,264.37233749999996,None,264.45567693999976,None,264.6723539799998,None,03,001,2022_Jul_06_1622,vSAT,2021.2.3,59.994660475265285,
vSAT_stims-16571317878217099.csv,0.017,1,0.0,0.0,1,right,0,2,2,2,0,21,21,21,265.1890201999995,None,266.18901670000014,None,right,1,0.27034400000047754,266.2223600999996,None,266.30566964,None,266.5389924800004,None,03,001,2022_Jul_06_1622,vSAT,2021.2.3,59.994660475265285,
vSAT_stims-16571317878217099.csv,0.028999999999999998,2,0.25,0.25,1,right,0,2,2,2,0,22,22,22,267.05566889999955,None,269.0557552999999,None,right,1,0.347602700000607,269.08907420000014,None,269.17243343999974,None,269.47243318000005,None,03,001,2022_Jul_06_1622,vSAT,2021.2.3,59.994660475265285,
vSAT_stims-16571317878217099.csv,0.05,1,0.0,0.0,0,left,0,2,2,2,0,23,23,23,269.9890766999997,None,270.98910799999976,None,left,1,0.557508400000188,271.03910240000005,None,271.1224217399996,None,271.62244664,None,03,001,2022_Jul_06_1622,vSAT,2021.2.3,59.994660475265285,
vSAT_stims-16571317878217099.csv,0.017,1,-0.25,-0.25,0,left,0,2,2,2,0,24,24,24,272.13911949999965,None,273.1391273999998,None,left,1,0.5042849999999817,273.1724644999995,None,273.2558192400003,None,273.72247314000026,None,03,001,2022_Jul_06_1622,vSAT,2021.2.3,59.994660475265285,
vSAT_stims-16571317878217099.csv,0.017,1,0.25,-0.25,0,left,0,2,2,2,0,25,25,25,274.2391627999996,None,275.2391590999996,None,left,1,0.48429610000039247,275.2724711000001,None,275.35583103999954,None,275.78920847999984,None,03,001,2022_Jul_06_1622,vSAT,2021.2.3,59.994660475265285,
vSAT_stims-16571317878217099.csv,0.017,1,0.25,0.25,0,left,0,2,2,2,0,26,26,26,276.3058553999999,None,277.3058682000001,None,left,1,0.4333484999997381,277.33918489999996,None,277.4225360399997,None,277.80585947999975,None,03,001,2022_Jul_06_1622,vSAT,2021.2.3,59.994660475265285,
vSAT_stims-16571317878217099.csv,0.017,1,0.25,-0.25,1,right,0,2,2,2,0,27,27,27,278.3058923999997,None,279.30589710000004,None,right,1,0.33740230000057636,279.3392458999997,None,279.4225608400003,None,279.72253727999964,None,03,001,2022_Jul_06_1622,vSAT,2021.2.3,59.994660475265285,
vSAT_stims-16571317878217099.csv,0.05,2,-0.25,0.25,1,right,0,2,2,2,0,28,28,28,280.2392509000001,None,282.23927300000014,None,right,1,0.2673238000006677,282.28924709999956,None,282.37261343999955,None,282.5892824799996,None,03,001,2022_Jul_06_1622,vSAT,2021.2.3,59.994660475265285,
vSAT_stims-16571317878217099.csv,0.028999999999999998,1,0.0,0.0,0,left,0,2,2,2,0,29,29,29,283.1059559999994,None,284.1059677000003,None,left,1,0.5611613999999463,284.1393078000001,None,284.22264843999994,None,284.72266213999967,None,03,001,2022_Jul_06_1622,vSAT,2021.2.3,59.994660475265285,
vSAT_stims-16571317878217099.csv,,,,,,,0,2,2,2,,,,,,,,,,,,,,,,,,03,001,2022_Jul_06_1622,vSAT,2021.2.3,59.994660475265285,
vSAT_stims-16571317878376577.csv,0.028999999999999998,2,-0.25,-0.25,1,right,0,3,3,3,0,0,0,0,286.5560224999999,None,288.5560433999999,None,right,1,0.4791864999997415,288.58934640000007,None,288.67271723999977,None,289.1060328799997,None,03,001,2022_Jul_06_1622,vSAT,2021.2.3,59.994660475265285,
vSAT_stims-16571317878376577.csv,0.028999999999999998,2,0.0,0.0,0,left,0,3,3,3,0,1,1,1,289.60605979999946,None,291.60607939999954,None,left,1,0.6612546999995175,291.63942880000013,None,291.72272153999995,None,292.3227697399999,None,03,001,2022_Jul_06_1622,vSAT,2021.2.3,59.994660475265285,
vSAT_stims-16571317878376577.csv,0.05,1,-0.25,-0.25,0,left,0,3,3,3,0,2,2,2,292.8394051999994,None,293.8394628999995,None,left,1,0.5073509000003469,293.88945109999986,None,293.97280843999954,None,294.4394658399998,None,03,001,2022_Jul_06_1622,vSAT,2021.2.3,59.994660475265285,
vSAT_stims-16571317878376577.csv,0.017,3,0.0,0.0,1,right,0,3,3,3,0,3,3,3,294.9561407000001,None,297.9561619999995,None,right,1,0.2630736999999499,297.98951059999945,None,298.07286184,None,298.2895212799997,None,03,001,2022_Jul_06_1622,vSAT,2021.2.3,59.994660475265285,
vSAT_stims-16571317878376577.csv,0.017,3,0.25,0.25,0,left,0,3,3,3,0,4,4,4,298.8062024000001,None,301.80624050000006,None,left,1,0.5091658999999709,301.83958280000024,None,301.9229085400003,None,302.3896015399997,None,03,001,2022_Jul_06_1622,vSAT,2021.2.3,59.994660475265285,
vSAT_stims-16571317878376577.csv,0.028999999999999998,3,0.25,0.25,1,right,0,3,3,3,0,5,5,5,302.90627309999945,None,305.90632170000026,None,right,1,0.2810280999992756,305.9396492999995,None,306.0229727400002,None,306.25629177999986,None,03,001,2022_Jul_06_1622,vSAT,2021.2.3,59.994660475265285,
vSAT_stims-16571317878376577.csv,0.017,3,0.0,0.0,0,left,0,3,3,3,0,6,6,6,306.7564346999998,None,309.7563620000001,None,left,1,0.4950724000000264,309.7897046999997,None,309.87303944000007,None,310.32303978000004,None,03,001,2022_Jul_06_1622,vSAT,2021.2.3,59.994660475265285,
vSAT_stims-16571317878376577.csv,0.028999999999999998,2,0.0,0.0,1,right,0,3,3,3,0,7,7,7,310.83968619999996,None,312.83975610000016,None,left,0,0.3235498000003645,312.8730853999996,None,312.9564257399999,None,313.23975668000026,None,03,001,2022_Jul_06_1622,vSAT,2021.2.3,59.994660475265285,
vSAT_stims-16571317878376577.csv,0.028999999999999998,3,-0.25,0.25,1,right,0,3,3,3,0,8,8,8,313.7564424000002,None,316.7564663000003,None,right,1,0.3747940000002927,316.7898004999997,None,316.87315374,None,317.2064848800003,None,03,001,2022_Jul_06_1622,vSAT,2021.2.3,59.994660475265285,
vSAT_stims-16571317878376577.csv,0.017,2,0.0,0.0,1,right,0,3,3,3,0,9,9,9,317.7064929999997,None,319.7065174999998,None,right,1,0.24070859999937966,319.7398744000002,None,319.82319654000014,None,320.0231906800002,None,03,001,2022_Jul_06_1622,vSAT,2021.2.3,59.994660475265285,
vSAT_stims-16571317878376577.csv,0.05,2,0.0,0.0,1,right,0,3,3,3,0,10,10,10,320.5398826999999,None,322.5398964999995,None,right,1,0.2547389999999723,322.58992899999976,None,322.6732369399998,None,322.8899022799999,None,03,001,2022_Jul_06_1622,vSAT,2021.2.3,59.994660475265285,
vSAT_stims-16571317878376577.csv,0.017,1,0.25,-0.25,0,left,0,3,3,3,0,11,11,11,323.4065897999999,None,324.40657379999993,None,left,1,0.5647152999999889,324.43995129999985,None,324.52325294000013,None,325.02327463999984,None,03,001,2022_Jul_06_1622,vSAT,2021.2.3,59.994660475265285,
vSAT_stims-16571317878376577.csv,0.028999999999999998,2,0.25,0.25,0,left,0,3,3,3,0,12,12,12,325.53997209999943,None,327.5399994999998,None,left,1,0.5834807999999612,327.57332289999977,None,327.65663994,None,328.1732787399998,None,03,001,2022_Jul_06_1622,vSAT,2021.2.3,59.994660475265285,
vSAT_stims-16571317878376577.csv,0.017,1,0.25,0.25,1,right,0,3,3,3,0,13,13,13,328.69000330000017,None,329.69000909999977,None,right,1,0.33712890000060725,329.7233497999996,None,329.8066892400003,None,330.10668417999955,None,03,001,2022_Jul_06_1622,vSAT,2021.2.3,59.994660475265285,
vSAT_stims-16571317878376577.csv,0.017,3,-0.25,-0.25,0,left,0,3,3,3,0,14,14,14,330.62336140000025,None,333.62338910000017,None,right,0,0.46798409999973956,333.6567312999996,None,333.74007324000024,None,334.17340077999984,None,03,001,2022_Jul_06_1622,vSAT,2021.2.3,59.994660475265285,
vSAT_stims-16571317878376577.csv,0.05,2,0.25,0.25,0,left,0,3,3,3,0,15,15,15,334.6900789000001,None,336.6901041000001,None,left,1,0.7125766999997722,336.7401219000003,None,336.82342103999974,None,337.4734758400001,None,03,001,2022_Jul_06_1622,vSAT,2021.2.3,59.994660475265285,
vSAT_stims-16571317878376577.csv,0.017,3,0.25,-0.25,1,right,0,3,3,3,0,16,16,16,337.99011859999973,None,340.9901855999997,None,right,1,0.34899029999996856,341.02352749999955,None,341.1068410399995,None,341.40689258000043,None,03,001,2022_Jul_06_1622,vSAT,2021.2.3,59.994660475265285,
vSAT_stims-16571317878376577.csv,0.028999999999999998,2,-0.25,-0.25,0,left,0,3,3,3,0,17,17,17,341.9235278999995,None,343.92356389999986,None,left,1,0.4236718000001929,343.9568712,None,344.04023264,None,344.4235745799999,None,03,001,2022_Jul_06_1622,vSAT,2021.2.3,59.994660475265285,
vSAT_stims-16571317878376577.csv,0.017,3,0.25,0.25,0,left,0,3,3,3,0,18,18,18,344.9402666999995,None,347.9402705000002,None,left,1,0.5192096999999194,347.97364000000016,None,348.0570026400002,None,348.52363913999955,None,03,001,2022_Jul_06_1622,vSAT,2021.2.3,59.994660475265285,
vSAT_stims-16571317878376577.csv,0.028999999999999998,2,0.0,0.0,0,left,0,3,3,3,0,19,19,19,349.04030929999954,None,351.04037229999994,None,left,1,0.6509360000000015,351.07370059999994,None,351.1570087399997,None,351.74035323999954,None,03,001,2022_Jul_06_1622,vSAT,2021.2.3,59.994660475265285,
vSAT_stims-16571317878376577.csv,0.028999999999999998,1,-0.25,0.25,1,right,0,3,3,3,0,20,20,20,352.2570255999999,None,353.25704570000016,None,left,0,0.4821602999991228,353.2903946999995,None,353.3737266399995,None,353.80704618000004,None,03,001,2022_Jul_06_1622,vSAT,2021.2.3,59.994660475265285,
vSAT_stims-16571317878376577.csv,0.017,1,-0.25,-0.25,0,left,0,3,3,3,0,21,21,21,354.3237202999999,None,355.32375649999994,None,left,1,0.8314534000001004,355.35708199999954,None,355.4403967399995,355.87379859999965,356.20709394000016,None,03,001,2022_Jul_06_1622,vSAT,2021.2.3,59.994660475265285,
vSAT_stims-16571317878376577.csv,0.05,2,0.0,0.0,0,left,0,3,3,3,0,22,22,22,356.72376879999956,None,358.7237949999999,None,left,1,0.4549050999994506,358.77379569999994,None,358.85713943999974,None,359.2738981799996,None,03,001,2022_Jul_06_1622,vSAT,2021.2.3,59.994660475265285,
vSAT_stims-16571317878376577.csv,0.05,3,0.0,0.0,1,right,0,3,3,3,0,23,23,23,359.79048409999996,None,362.7905036000002,None,right,1,0.3880557999991652,362.84053029999995,None,362.9238608400002,None,363.2738775800001,None,03,001,2022_Jul_06_1622,vSAT,2021.2.3,59.994660475265285,
vSAT_stims-16571317878376577.csv,0.05,1,0.25,0.25,1,right,0,3,3,3,0,24,24,24,363.79055400000016,None,364.79056649999984,None,right,1,0.29207580000002054,364.84052509999947,None,364.9238939400003,None,365.17388807999964,None,03,001,2022_Jul_06_1622,vSAT,2021.2.3,59.994660475265285,
vSAT_stims-16571317878376577.csv,0.028999999999999998,1,0.0,0.0,0,left,0,3,3,3,0,25,25,25,365.6905753000001,None,366.69056,None,left,1,0.6486042000005909,366.72393099999954,None,366.8072641399996,None,367.39061153999967,None,03,001,2022_Jul_06_1622,vSAT,2021.2.3,59.994660475265285,
vSAT_stims-16571317878376577.csv,0.028999999999999998,1,0.0,0.0,0,left,0,3,3,3,0,26,26,26,367.9072890999996,None,368.90728859999945,None,left,1,0.495908199999576,368.9406011000001,None,369.02395613999954,None,369.47396588000015,None,03,001,2022_Jul_06_1622,vSAT,2021.2.3,59.994660475265285,
vSAT_stims-16571317878376577.csv,0.05,2,0.25,-0.25,0,left,0,3,3,3,0,27,27,27,369.9906398000003,None,371.9906783999995,None,left,1,0.49999880000086705,372.04069059999983,None,372.12400913999966,None,372.57400468000037,None,03,001,2022_Jul_06_1622,vSAT,2021.2.3,59.994660475265285,
vSAT_stims-16571317878376577.csv,0.05,3,0.0,0.0,1,right,0,3,3,3,0,28,28,28,373.09070470000006,None,376.0907269999998,None,right,1,0.27243449999969016,376.14074189999974,None,376.22407573999965,None,376.4574400800004,None,03,001,2022_Jul_06_1622,vSAT,2021.2.3,59.994660475265285,
vSAT_stims-16571317878376577.csv,0.028999999999999998,2,-0.25,0.25,0,left,0,3,3,3,0,29,29,29,376.97407509999994,None,378.9741216000002,None,left,1,0.5091209000001982,379.0074489999997,None,379.0907822399996,379.5241421999999,379.54081074,None,03,001,2022_Jul_06_1622,vSAT,2021.2.3,59.994660475265285,
vSAT_stims-16571317878376577.csv,,,,,,,0,3,3,3,,,,,,,,,,,,,,,,,,03,001,2022_Jul_06_1622,vSAT,2021.2.3,59.994660475265285,
