task_order,num_stim,match,corr_key,match_num,n_back_loop.thisRepN,n_back_loop.thisTrialN,n_back_loop.thisN,n_back_loop.thisIndex,stim_loop.thisRepN,stim_loop.thisTrialN,stim_loop.thisN,stim_loop.thisIndex,stim_text.started,stim_text.stopped,stim_resp.keys,stim_resp.corr,stim_resp.rt,stim_resp.started,stim_resp.stopped,participant,session,date,expName,psychopyVersion,frameRate,
OB-165290985969779.csv,1,0,left,,0,0,0,0,0,0,0,0,76.9358013000001,77.43579620000037,left,1,1.2871229000002131,76.9358013000001,None,01,001,2022_Jun_15_1548,n_back,2021.2.3,59.987786486748504,
OB-165290985969779.csv,3,0,left,,0,0,0,0,0,1,1,1,80.4358342000005,80.93584190000001,left,1,0.6670912999998109,80.4358342000005,None,01,001,2022_Jun_15_1548,n_back,2021.2.3,59.987786486748504,
OB-165290985969779.csv,5,0,left,,0,0,0,0,0,2,2,2,83.9358884000003,84.43587860000025,left,1,0.4950453999999809,83.9358884000003,None,01,001,2022_Jun_15_1548,n_back,2021.2.3,59.987786486748504,
OB-165290985969779.csv,0,0,left,,0,0,0,0,0,3,3,3,87.4359256000007,87.9359316,left,1,0.5149298000005729,87.4359256000007,None,01,001,2022_Jun_15_1548,n_back,2021.2.3,59.987786486748504,
OB-165290985969779.csv,3,0,left,,0,0,0,0,0,4,4,4,90.93597750000026,91.43597190000037,left,1,0.39099260000057257,90.93597750000026,None,01,001,2022_Jun_15_1548,n_back,2021.2.3,59.987786486748504,
OB-165290985969779.csv,3,1,right,,0,0,0,0,0,5,5,5,94.43602270000065,94.93601390000003,right,1,0.3628614999997808,94.43602270000065,None,01,001,2022_Jun_15_1548,n_back,2021.2.3,59.987786486748504,
OB-165290985969779.csv,9,0,left,,0,0,0,0,0,6,6,6,97.93605650000063,98.43606610000006,left,1,0.38315330000023096,97.93605650000063,None,01,001,2022_Jun_15_1548,n_back,2021.2.3,59.987786486748504,
OB-165290985969779.csv,9,1,right,,0,0,0,0,0,7,7,7,101.43610970000009,101.93610549999994,right,1,0.8029910999994172,101.43610970000009,None,01,001,2022_Jun_15_1548,n_back,2021.2.3,59.987786486748504,
OB-165290985969779.csv,8,0,left,,0,0,0,0,0,8,8,8,104.93615180000052,105.43615100000079,left,1,0.6948456000000078,104.93615180000052,None,01,001,2022_Jun_15_1548,n_back,2021.2.3,59.987786486748504,
OB-165290985969779.csv,2,0,left,,0,0,0,0,0,9,9,9,108.43619330000001,108.93616810000003,left,1,0.47477429999980814,108.43619330000001,None,01,001,2022_Jun_15_1548,n_back,2021.2.3,59.987786486748504,
OB-165290985969779.csv,2,1,right,,0,0,0,0,0,10,10,10,111.93624550000004,112.43623160000061,left,0,0.4145896999998513,111.93624550000004,None,01,001,2022_Jun_15_1548,n_back,2021.2.3,59.987786486748504,
OB-165290985969779.csv,2,1,right,,0,0,0,0,0,11,11,11,115.43629300000066,115.9363084000006,right,1,0.7868652999995902,115.43629300000066,None,01,001,2022_Jun_15_1548,n_back,2021.2.3,59.987786486748504,
OB-165290985969779.csv,2,1,right,,0,0,0,0,0,12,12,12,118.93633730000056,119.43635320000067,right,1,0.45455760000004375,118.93633730000056,None,01,001,2022_Jun_15_1548,n_back,2021.2.3,59.987786486748504,
OB-165290985969779.csv,1,0,left,,0,0,0,0,0,13,13,13,122.43639840000014,122.9363800000001,left,1,0.4104594000000361,122.43639840000014,None,01,001,2022_Jun_15_1548,n_back,2021.2.3,59.987786486748504,
OB-165290985969779.csv,9,0,left,,0,0,0,0,0,14,14,14,125.93641810000008,126.43643450000036,left,1,0.47841410000000906,125.93641810000008,None,01,001,2022_Jun_15_1548,n_back,2021.2.3,59.987786486748504,
OB-165290985969779.csv,5,0,left,,0,0,0,0,0,15,15,15,129.43646210000043,129.93646650000028,left,1,0.5463590999997905,129.43646210000043,None,01,001,2022_Jun_15_1548,n_back,2021.2.3,59.987786486748504,
OB-165290985969779.csv,5,1,right,,0,0,0,0,0,16,16,16,132.93652160000056,133.4365243000002,right,1,0.630364699999518,132.93652160000056,None,01,001,2022_Jun_15_1548,n_back,2021.2.3,59.987786486748504,
OB-165290985969779.csv,6,0,left,,0,0,0,0,0,17,17,17,136.4365738000006,136.93658080000023,left,1,0.4423925999999483,136.4365738000006,None,01,001,2022_Jun_15_1548,n_back,2021.2.3,59.987786486748504,
OB-165290985969779.csv,6,1,right,,0,0,0,0,0,18,18,18,139.9366142000008,140.43661730000076,right,1,0.5102113000002646,139.9366142000008,None,01,001,2022_Jun_15_1548,n_back,2021.2.3,59.987786486748504,
OB-165290985969779.csv,6,1,right,,0,0,0,0,0,19,19,19,143.43663240000024,143.9366572000008,right,1,0.5461331999995309,143.43663240000024,None,01,001,2022_Jun_15_1548,n_back,2021.2.3,59.987786486748504,
OB-165290985969779.csv,,,,,0,0,0,0,,,,,,,,,,,,01,001,2022_Jun_15_1548,n_back,2021.2.3,59.987786486748504,
ZB-match_8-16529098592842987.csv,2,0,left,8,0,1,1,1,0,0,0,0,155.75352720000046,156.25349790000018,left,1,0.613302300000214,155.75352720000046,None,01,001,2022_Jun_15_1548,n_back,2021.2.3,59.987786486748504,
ZB-match_8-16529098592842987.csv,6,0,left,8,0,1,1,1,0,1,1,1,159.25355220000074,159.75353040000027,left,1,0.3771919999999227,159.25355220000074,159.25355220000074,01,001,2022_Jun_15_1548,n_back,2021.2.3,59.987786486748504,
ZB-match_8-16529098592842987.csv,9,0,left,8,0,1,1,1,0,2,2,2,162.75357620000068,163.25358310000047,left,1,0.3652692000005118,162.75357620000068,162.75357620000068,01,001,2022_Jun_15_1548,n_back,2021.2.3,59.987786486748504,
ZB-match_8-16529098592842987.csv,8,1,right,8,0,1,1,1,0,3,3,3,166.25362300000052,166.75363460000062,right,1,0.369173399999454,166.25362300000052,166.25362300000052,01,001,2022_Jun_15_1548,n_back,2021.2.3,59.987786486748504,
ZB-match_8-16529098592842987.csv,1,0,left,8,0,1,1,1,0,4,4,4,169.7536667000004,170.25366790000044,left,1,0.5490672999994786,169.7536667000004,169.7536667000004,01,001,2022_Jun_15_1548,n_back,2021.2.3,59.987786486748504,
ZB-match_8-16529098592842987.csv,3,0,left,8,0,1,1,1,0,5,5,5,173.25369600000067,173.75372810000044,left,1,0.45719129999997676,173.25369600000067,173.25369600000067,01,001,2022_Jun_15_1548,n_back,2021.2.3,59.987786486748504,
ZB-match_8-16529098592842987.csv,8,1,right,8,0,1,1,1,0,6,6,6,176.75375610000083,177.25378210000054,right,1,0.47707530000025145,176.75375610000083,176.75375610000083,01,001,2022_Jun_15_1548,n_back,2021.2.3,59.987786486748504,
ZB-match_8-16529098592842987.csv,7,0,left,8,0,1,1,1,0,7,7,7,180.25381470000048,180.75378530000035,left,1,0.4971810999995796,180.25381470000048,180.25381470000048,01,001,2022_Jun_15_1548,n_back,2021.2.3,59.987786486748504,
ZB-match_8-16529098592842987.csv,0,0,left,8,0,1,1,1,0,8,8,8,183.75384420000046,184.25384890000078,left,1,0.4850281000008181,183.75384420000046,183.75384420000046,01,001,2022_Jun_15_1548,n_back,2021.2.3,59.987786486748504,
ZB-match_8-16529098592842987.csv,3,0,left,8,0,1,1,1,0,9,9,9,187.25389190000078,187.75390680000055,left,1,0.617011100000127,187.25389190000078,187.25389190000078,01,001,2022_Jun_15_1548,n_back,2021.2.3,59.987786486748504,
ZB-match_8-16529098592842987.csv,0,0,left,8,0,1,1,1,0,10,10,10,190.75393990000066,191.25394040000083,left,1,0.4128275000002759,190.75393990000066,190.75393990000066,01,001,2022_Jun_15_1548,n_back,2021.2.3,59.987786486748504,
ZB-match_8-16529098592842987.csv,8,1,right,8,0,1,1,1,0,11,11,11,194.25401409999995,194.7539925000001,right,1,0.48064630000044417,194.25401409999995,194.25401409999995,01,001,2022_Jun_15_1548,n_back,2021.2.3,59.987786486748504,
ZB-match_8-16529098592842987.csv,8,1,right,8,0,1,1,1,0,12,12,12,197.7540450000006,198.25402780000059,right,1,0.5168120999996972,197.7540450000006,197.7540450000006,01,001,2022_Jun_15_1548,n_back,2021.2.3,59.987786486748504,
ZB-match_8-16529098592842987.csv,8,1,right,8,0,1,1,1,0,13,13,13,201.25411190000068,201.7540641000005,right,1,0.3925257999999303,201.25411190000068,201.25411190000068,01,001,2022_Jun_15_1548,n_back,2021.2.3,59.987786486748504,
ZB-match_8-16529098592842987.csv,8,1,right,8,0,1,1,1,0,14,14,14,204.7541336000004,205.25413019999996,right,1,0.3805038999998942,204.7541336000004,204.7541336000004,01,001,2022_Jun_15_1548,n_back,2021.2.3,59.987786486748504,
ZB-match_8-16529098592842987.csv,8,1,right,8,0,1,1,1,0,15,15,15,208.25417240000024,208.7541723000004,right,1,0.33672459999979765,208.25417240000024,208.25417240000024,01,001,2022_Jun_15_1548,n_back,2021.2.3,59.987786486748504,
ZB-match_8-16529098592842987.csv,7,0,left,8,0,1,1,1,0,16,16,16,211.75422340000023,212.2542826000008,left,1,0.4525413999999728,211.75422340000023,211.75422340000023,01,001,2022_Jun_15_1548,n_back,2021.2.3,59.987786486748504,
ZB-match_8-16529098592842987.csv,2,0,left,8,0,1,1,1,0,17,17,17,215.2542540000004,215.7542925000007,left,1,0.40839490000053047,215.2542540000004,215.2542540000004,01,001,2022_Jun_15_1548,n_back,2021.2.3,59.987786486748504,
ZB-match_8-16529098592842987.csv,2,0,left,8,0,1,1,1,0,18,18,18,218.7543067000006,219.25432760000058,left,1,0.428306299999349,218.7543067000006,218.7543067000006,01,001,2022_Jun_15_1548,n_back,2021.2.3,59.987786486748504,
ZB-match_8-16529098592842987.csv,8,1,right,8,0,1,1,1,0,19,19,19,222.25435560000005,222.75436630000058,right,1,0.41622800000004645,222.25435560000005,222.25435560000005,01,001,2022_Jun_15_1548,n_back,2021.2.3,59.987786486748504,
ZB-match_8-16529098592842987.csv,,,,,0,1,1,1,,,,,,,,,,,,01,001,2022_Jun_15_1548,n_back,2021.2.3,59.987786486748504,
ZB-match_9-16529098592180767.csv,0,0,left,9,0,2,2,2,0,0,0,0,231.68786870000076,232.1878215000006,left,1,0.5669239999997444,231.68786870000076,None,01,001,2022_Jun_15_1548,n_back,2021.2.3,59.987786486748504,
ZB-match_9-16529098592180767.csv,4,0,left,9,0,2,2,2,0,1,1,1,235.18783280000025,235.68786739999996,left,1,0.49074709999968036,235.18783280000025,235.18783280000025,01,001,2022_Jun_15_1548,n_back,2021.2.3,59.987786486748504,
ZB-match_9-16529098592180767.csv,9,1,right,9,0,2,2,2,0,2,2,2,238.68789210000068,239.18791540000075,right,1,0.4786584000003131,238.68789210000068,238.68789210000068,01,001,2022_Jun_15_1548,n_back,2021.2.3,59.987786486748504,
ZB-match_9-16529098592180767.csv,5,0,left,9,0,2,2,2,0,3,3,3,242.18794160000016,242.68795780000073,left,1,0.5305914000000485,242.18794160000016,242.18794160000016,01,001,2022_Jun_15_1548,n_back,2021.2.3,59.987786486748504,
ZB-match_9-16529098592180767.csv,9,1,right,9,0,2,2,2,0,4,4,4,245.68799050000052,246.18800680000004,right,1,0.40662590000010823,245.68799050000052,245.68799050000052,01,001,2022_Jun_15_1548,n_back,2021.2.3,59.987786486748504,
ZB-match_9-16529098592180767.csv,3,0,left,9,0,2,2,2,0,5,5,5,249.1880280000005,249.68803890000072,left,1,0.47449979999964853,249.1880280000005,249.1880280000005,01,001,2022_Jun_15_1548,n_back,2021.2.3,59.987786486748504,
ZB-match_9-16529098592180767.csv,7,0,left,9,0,2,2,2,0,6,6,6,252.6880916,253.1880959,left,1,0.5744498999993084,252.6880916,252.6880916,01,001,2022_Jun_15_1548,n_back,2021.2.3,59.987786486748504,
ZB-match_9-16529098592180767.csv,9,1,right,9,0,2,2,2,0,7,7,7,256.18814509999993,256.6881379000006,right,1,0.7063797000000704,256.18814509999993,256.18814509999993,01,001,2022_Jun_15_1548,n_back,2021.2.3,59.987786486748504,
ZB-match_9-16529098592180767.csv,9,1,right,9,0,2,2,2,0,8,8,8,259.6881953000002,260.18819840000015,right,1,0.518380900000011,259.6881953000002,259.6881953000002,01,001,2022_Jun_15_1548,n_back,2021.2.3,59.987786486748504,
ZB-match_9-16529098592180767.csv,5,0,left,9,0,2,2,2,0,9,9,9,263.18821240000034,263.68824420000055,left,1,0.41036669999994047,263.18821240000034,263.18821240000034,01,001,2022_Jun_15_1548,n_back,2021.2.3,59.987786486748504,
ZB-match_9-16529098592180767.csv,9,1,right,9,0,2,2,2,0,10,10,10,266.6882762000005,267.1882899000002,right,1,0.4142314000000624,266.6882762000005,266.6882762000005,01,001,2022_Jun_15_1548,n_back,2021.2.3,59.987786486748504,
ZB-match_9-16529098592180767.csv,4,0,left,9,0,2,2,2,0,11,11,11,270.1883095000003,270.6883305000001,left,1,0.35444709999956103,270.1883095000003,270.1883095000003,01,001,2022_Jun_15_1548,n_back,2021.2.3,59.987786486748504,
ZB-match_9-16529098592180767.csv,5,0,left,9,0,2,2,2,0,12,12,12,273.6883574000003,274.18837580000036,left,1,0.40614040000036766,273.6883574000003,273.6883574000003,01,001,2022_Jun_15_1548,n_back,2021.2.3,59.987786486748504,
ZB-match_9-16529098592180767.csv,9,1,right,9,0,2,2,2,0,13,13,13,277.18840480000017,277.6884101000005,right,1,0.4420742000002065,277.18840480000017,277.18840480000017,01,001,2022_Jun_15_1548,n_back,2021.2.3,59.987786486748504,
ZB-match_9-16529098592180767.csv,9,1,right,9,0,2,2,2,0,14,14,14,280.6884478000002,281.1884138000005,right,1,0.3659754000000248,280.6884478000002,280.6884478000002,01,001,2022_Jun_15_1548,n_back,2021.2.3,59.987786486748504,
ZB-match_9-16529098592180767.csv,1,0,left,9,0,2,2,2,0,15,15,15,284.1884656000002,284.68850180000027,left,1,0.43411469999955443,284.1884656000002,284.1884656000002,01,001,2022_Jun_15_1548,n_back,2021.2.3,59.987786486748504,
ZB-match_9-16529098592180767.csv,9,1,right,9,0,2,2,2,0,16,16,16,287.68854550000015,288.1885514000005,right,1,0.486067699999694,287.68854550000015,287.68854550000015,01,001,2022_Jun_15_1548,n_back,2021.2.3,59.987786486748504,
ZB-match_9-16529098592180767.csv,6,0,left,9,0,2,2,2,0,17,17,17,291.18856080000023,291.6885985000008,right,0,0.4579088000000411,291.18856080000023,291.18856080000023,01,001,2022_Jun_15_1548,n_back,2021.2.3,59.987786486748504,
ZB-match_9-16529098592180767.csv,3,0,left,9,0,2,2,2,0,18,18,18,294.68863130000045,295.1886215000004,right,0,0.4938781000000745,294.68863130000045,294.68863130000045,01,001,2022_Jun_15_1548,n_back,2021.2.3,59.987786486748504,
ZB-match_9-16529098592180767.csv,5,0,left,9,0,2,2,2,0,19,19,19,298.18865110000024,298.68869470000027,left,1,0.4339611999994304,298.18865110000024,298.18865110000024,01,001,2022_Jun_15_1548,n_back,2021.2.3,59.987786486748504,
ZB-match_9-16529098592180767.csv,,,,,0,2,2,2,,,,,,,,,,,,01,001,2022_Jun_15_1548,n_back,2021.2.3,59.987786486748504,
OB-16529098598729453.csv,1,0,left,,0,3,3,3,0,0,0,0,307.3555387000006,307.85551250000026,None,0,,307.3555387000006,None,01,001,2022_Jun_15_1548,n_back,2021.2.3,59.987786486748504,
OB-16529098598729453.csv,7,0,left,,0,3,3,3,0,1,1,1,310.8555034000001,311.35553530000016,left,1,0.4708491999999751,310.8555034000001,310.8555034000001,01,001,2022_Jun_15_1548,n_back,2021.2.3,59.987786486748504,
OB-16529098598729453.csv,4,0,left,,0,3,3,3,0,2,2,2,314.35557790000075,314.8555699000008,left,1,0.41071950000059587,314.35557790000075,314.35557790000075,01,001,2022_Jun_15_1548,n_back,2021.2.3,59.987786486748504,
OB-16529098598729453.csv,4,1,right,,0,3,3,3,0,3,3,3,317.8556023000001,318.3556094000005,right,1,0.7987870999995721,317.8556023000001,317.8556023000001,01,001,2022_Jun_15_1548,n_back,2021.2.3,59.987786486748504,
OB-16529098598729453.csv,4,1,right,,0,3,3,3,0,4,4,4,321.35561469999993,321.85566199999994,right,1,0.43490419999943697,321.35561469999993,321.35561469999993,01,001,2022_Jun_15_1548,n_back,2021.2.3,59.987786486748504,
OB-16529098598729453.csv,3,0,left,,0,3,3,3,0,5,5,5,324.85570350000035,325.35570520000056,left,1,0.8867695999997522,324.85570350000035,324.85570350000035,01,001,2022_Jun_15_1548,n_back,2021.2.3,59.987786486748504,
OB-16529098598729453.csv,5,0,left,,0,3,3,3,0,6,6,6,328.3557492,328.8557649000004,left,1,0.5065813999999591,328.3557492,328.3557492,01,001,2022_Jun_15_1548,n_back,2021.2.3,59.987786486748504,
OB-16529098598729453.csv,1,0,left,,0,3,3,3,0,7,7,7,331.8557780000001,332.3557886000008,left,1,0.558558599999742,331.8557780000001,331.8557780000001,01,001,2022_Jun_15_1548,n_back,2021.2.3,59.987786486748504,
OB-16529098598729453.csv,1,1,right,,0,3,3,3,0,8,8,8,335.35584590000053,335.85584890000064,left,0,0.4825279999995473,335.35584590000053,335.35584590000053,01,001,2022_Jun_15_1548,n_back,2021.2.3,59.987786486748504,
OB-16529098598729453.csv,1,1,right,,0,3,3,3,0,9,9,9,338.85589190000064,339.3558913000006,right,1,0.6304480999997395,338.85589190000064,338.85589190000064,01,001,2022_Jun_15_1548,n_back,2021.2.3,59.987786486748504,
OB-16529098598729453.csv,1,1,right,,0,3,3,3,0,10,10,10,342.35592410000027,342.8559481000002,right,1,0.4903826999998273,342.35592410000027,342.35592410000027,01,001,2022_Jun_15_1548,n_back,2021.2.3,59.987786486748504,
OB-16529098598729453.csv,9,0,left,,0,3,3,3,0,11,11,11,345.85596540000006,346.3559438000002,left,1,0.4624160999992455,345.85596540000006,345.85596540000006,01,001,2022_Jun_15_1548,n_back,2021.2.3,59.987786486748504,
OB-16529098598729453.csv,7,0,left,,0,3,3,3,0,12,12,12,349.3560301000007,349.8560305000001,left,1,0.4503439000000071,349.3560301000007,349.3560301000007,01,001,2022_Jun_15_1548,n_back,2021.2.3,59.987786486748504,
OB-16529098598729453.csv,8,0,left,,0,3,3,3,0,13,13,13,352.8560675000008,353.3560599000002,left,1,0.43825529999958235,352.8560675000008,352.8560675000008,01,001,2022_Jun_15_1548,n_back,2021.2.3,59.987786486748504,
OB-16529098598729453.csv,8,1,right,,0,3,3,3,0,14,14,14,356.3561124000007,356.85612500000025,right,1,0.426132200000211,356.3561124000007,356.3561124000007,01,001,2022_Jun_15_1548,n_back,2021.2.3,59.987786486748504,
OB-16529098598729453.csv,0,0,left,,0,3,3,3,0,15,15,15,359.85615620000044,360.3561539000002,left,1,0.47814780000044266,359.85615620000044,359.85615620000044,01,001,2022_Jun_15_1548,n_back,2021.2.3,59.987786486748504,
OB-16529098598729453.csv,2,0,left,,0,3,3,3,0,16,16,16,363.3562090000005,363.8562137000008,left,1,0.4181626999998116,363.3562090000005,363.3562090000005,01,001,2022_Jun_15_1548,n_back,2021.2.3,59.987786486748504,
OB-16529098598729453.csv,2,1,right,,0,3,3,3,0,17,17,17,366.85625359999995,367.35625600000003,right,1,0.5659239999995407,366.85625359999995,366.85625359999995,01,001,2022_Jun_15_1548,n_back,2021.2.3,59.987786486748504,
OB-16529098598729453.csv,2,1,right,,0,3,3,3,0,18,18,18,370.3563021,370.8563010000007,right,1,1.4181701999996221,370.3563021,370.3563021,01,001,2022_Jun_15_1548,n_back,2021.2.3,59.987786486748504,
OB-16529098598729453.csv,6,0,left,,0,3,3,3,0,19,19,19,373.8563769000002,374.3563529000003,left,1,0.4298770000004879,373.8563769000002,373.8563769000002,01,001,2022_Jun_15_1548,n_back,2021.2.3,59.987786486748504,
OB-16529098598729453.csv,,,,,0,3,3,3,,,,,,,,,,,,01,001,2022_Jun_15_1548,n_back,2021.2.3,59.987786486748504,
ZB-match_1-16529098593413885.csv,9,0,left,1,0,4,4,4,0,0,0,0,383.7564729000005,384.25647879999997,left,1,0.8177665000002889,383.7564729000005,None,01,001,2022_Jun_15_1548,n_back,2021.2.3,59.987786486748504,
ZB-match_1-16529098593413885.csv,3,0,left,1,0,4,4,4,0,1,1,1,387.2565209000004,387.75652530000025,left,1,0.5176924999996118,387.2565209000004,387.2565209000004,01,001,2022_Jun_15_1548,n_back,2021.2.3,59.987786486748504,
ZB-match_1-16529098593413885.csv,5,0,left,1,0,4,4,4,0,2,2,2,390.7565732000003,391.2565819000001,left,1,0.42556559999957244,390.7565732000003,390.7565732000003,01,001,2022_Jun_15_1548,n_back,2021.2.3,59.987786486748504,
ZB-match_1-16529098593413885.csv,7,0,left,1,0,4,4,4,0,3,3,3,394.2566046000002,394.75661930000024,left,1,0.49346979999972973,394.2566046000002,394.2566046000002,01,001,2022_Jun_15_1548,n_back,2021.2.3,59.987786486748504,
ZB-match_1-16529098593413885.csv,1,1,right,1,0,4,4,4,0,4,4,4,397.75664850000067,398.25667560000056,right,1,0.5456042000005255,397.75664850000067,397.75664850000067,01,001,2022_Jun_15_1548,n_back,2021.2.3,59.987786486748504,
ZB-match_1-16529098593413885.csv,1,1,right,1,0,4,4,4,0,5,5,5,401.25670700000046,401.75670620000074,left,0,0.5174921000007089,401.25670700000046,401.25670700000046,01,001,2022_Jun_15_1548,n_back,2021.2.3,59.987786486748504,
ZB-match_1-16529098593413885.csv,6,0,left,1,0,4,4,4,0,6,6,6,404.7567547000008,405.25674250000066,left,1,0.5214292000000569,404.7567547000008,404.7567547000008,01,001,2022_Jun_15_1548,n_back,2021.2.3,59.987786486748504,
ZB-match_1-16529098593413885.csv,2,0,left,1,0,4,4,4,0,7,7,7,408.2568016000005,408.7568052000006,left,1,0.44529229999989184,408.2568016000005,408.2568016000005,01,001,2022_Jun_15_1548,n_back,2021.2.3,59.987786486748504,
ZB-match_1-16529098593413885.csv,1,1,right,1,0,4,4,4,0,8,8,8,411.75684470000033,412.2568504000001,right,1,0.4494092000004457,411.75684470000033,411.75684470000033,01,001,2022_Jun_15_1548,n_back,2021.2.3,59.987786486748504,
ZB-match_1-16529098593413885.csv,3,0,left,1,0,4,4,4,0,9,9,9,415.25690660000055,415.7569003000008,left,1,0.4854685000000245,415.25690660000055,415.25690660000055,01,001,2022_Jun_15_1548,n_back,2021.2.3,59.987786486748504,
ZB-match_1-16529098593413885.csv,1,1,right,1,0,4,4,4,0,10,10,10,418.75692680000066,419.25693690000026,right,1,0.617280400000709,418.75692680000066,418.75692680000066,01,001,2022_Jun_15_1548,n_back,2021.2.3,59.987786486748504,
ZB-match_1-16529098593413885.csv,3,0,left,1,0,4,4,4,0,11,11,11,422.2569817000003,422.75703090000025,left,1,0.5251250000001164,422.2569817000003,422.2569817000003,01,001,2022_Jun_15_1548,n_back,2021.2.3,59.987786486748504,
ZB-match_1-16529098593413885.csv,1,1,right,1,0,4,4,4,0,12,12,12,425.7570291000002,426.2570375000005,right,1,0.5610606000000189,425.7570291000002,425.7570291000002,01,001,2022_Jun_15_1548,n_back,2021.2.3,59.987786486748504,
ZB-match_1-16529098593413885.csv,2,0,left,1,0,4,4,4,0,13,13,13,429.2570740000001,429.75708660000055,left,1,0.3570042999999714,429.2570740000001,429.2570740000001,01,001,2022_Jun_15_1548,n_back,2021.2.3,59.987786486748504,
ZB-match_1-16529098593413885.csv,4,0,left,1,0,4,4,4,0,14,14,14,432.7571157000002,433.25711840000076,left,1,0.4568284000006315,432.7571157000002,432.7571157000002,01,001,2022_Jun_15_1548,n_back,2021.2.3,59.987786486748504,
ZB-match_1-16529098593413885.csv,0,0,left,1,0,4,4,4,0,15,15,15,436.2571482000003,436.7571717000001,left,1,0.4770585000005667,436.2571482000003,436.2571482000003,01,001,2022_Jun_15_1548,n_back,2021.2.3,59.987786486748504,
ZB-match_1-16529098593413885.csv,1,1,right,1,0,4,4,4,0,16,16,16,439.7572087000008,440.25720140000067,right,1,0.6088331999999355,439.7572087000008,439.7572087000008,01,001,2022_Jun_15_1548,n_back,2021.2.3,59.987786486748504,
ZB-match_1-16529098593413885.csv,1,1,right,1,0,4,4,4,0,17,17,17,443.2572568000005,443.7572630000004,right,1,0.46891210000012506,443.2572568000005,443.2572568000005,01,001,2022_Jun_15_1548,n_back,2021.2.3,59.987786486748504,
ZB-match_1-16529098593413885.csv,0,0,left,1,0,4,4,4,0,18,18,18,446.7572841000001,447.257294,left,1,0.40868010000031063,446.7572841000001,446.7572841000001,01,001,2022_Jun_15_1548,n_back,2021.2.3,59.987786486748504,
ZB-match_1-16529098593413885.csv,1,1,right,1,0,4,4,4,0,19,19,19,450.2573456,450.75735130000066,right,1,0.44463880000057543,450.2573456,450.2573456,01,001,2022_Jun_15_1548,n_back,2021.2.3,59.987786486748504,
ZB-match_1-16529098593413885.csv,,,,,0,4,4,4,,,,,,,,,,,,01,001,2022_Jun_15_1548,n_back,2021.2.3,59.987786486748504,
TB-16529098605915005.csv,6,0,left,,0,5,5,5,0,0,0,0,461.55753410000034,462.0575080000008,left,1,1.4644038000005821,461.55753410000034,None,01,001,2022_Jun_15_1548,n_back,2021.2.3,59.987786486748504,
TB-16529098605915005.csv,0,0,left,,0,5,5,5,0,1,1,1,465.05753790000017,465.55758440000045,left,1,0.42838769999980286,465.05753790000017,465.05753790000017,01,001,2022_Jun_15_1548,n_back,2021.2.3,59.987786486748504,
TB-16529098605915005.csv,7,0,left,,0,5,5,5,0,2,2,2,468.55757820000053,469.0575798,left,1,0.640451899999789,468.55757820000053,468.55757820000053,01,001,2022_Jun_15_1548,n_back,2021.2.3,59.987786486748504,
TB-16529098605915005.csv,9,0,left,,0,5,5,5,0,3,3,3,472.0576301000001,472.55770100000063,left,1,0.516316199999892,472.0576301000001,472.0576301000001,01,001,2022_Jun_15_1548,n_back,2021.2.3,59.987786486748504,
TB-16529098605915005.csv,7,1,right,,0,5,5,5,0,4,4,4,475.55766870000025,476.0576903000001,right,1,0.8402940000005401,475.55766870000025,475.55766870000025,01,001,2022_Jun_15_1548,n_back,2021.2.3,59.987786486748504,
TB-16529098605915005.csv,9,1,right,,0,5,5,5,0,5,5,5,479.057718,479.55772310000066,right,1,0.8923767999995107,479.057718,479.057718,01,001,2022_Jun_15_1548,n_back,2021.2.3,59.987786486748504,
TB-16529098605915005.csv,1,0,left,,0,5,5,5,0,6,6,6,482.55775390000053,483.0577680000006,left,1,0.7683912999991662,482.55775390000053,482.55775390000053,01,001,2022_Jun_15_1548,n_back,2021.2.3,59.987786486748504,
TB-16529098605915005.csv,9,1,right,,0,5,5,5,0,7,7,7,486.0578090000008,486.5578189000007,right,1,0.8362471000000369,486.0578090000008,486.0578090000008,01,001,2022_Jun_15_1548,n_back,2021.2.3,59.987786486748504,
TB-16529098605915005.csv,1,1,right,,0,5,5,5,0,8,8,8,489.5578458,490.0578658000004,right,1,1.2242555999991964,489.5578458,489.5578458,01,001,2022_Jun_15_1548,n_back,2021.2.3,59.987786486748504,
TB-16529098605915005.csv,8,0,left,,0,5,5,5,0,9,9,9,493.0578983000005,493.55790610000076,left,1,0.9719983999993929,493.0578983000005,493.0578983000005,01,001,2022_Jun_15_1548,n_back,2021.2.3,59.987786486748504,
TB-16529098605915005.csv,5,0,left,,0,5,5,5,0,10,10,10,496.5579451000003,497.0579445000003,left,1,0.9279536000003645,496.5579451000003,496.5579451000003,01,001,2022_Jun_15_1548,n_back,2021.2.3,59.987786486748504,
TB-16529098605915005.csv,6,0,left,,0,5,5,5,0,11,11,11,500.05797710000024,500.5580051000006,left,1,0.8997952999998233,500.05797710000024,500.05797710000024,01,001,2022_Jun_15_1548,n_back,2021.2.3,59.987786486748504,
TB-16529098605915005.csv,5,1,right,,0,5,5,5,0,12,12,12,503.55802960000074,504.0580402000005,right,1,1.3360319000003074,503.55802960000074,503.55802960000074,01,001,2022_Jun_15_1548,n_back,2021.2.3,59.987786486748504,
TB-16529098605915005.csv,6,1,right,,0,5,5,5,0,13,13,13,507.058078,507.55807840000034,right,1,1.1317857999993066,507.058078,507.058078,01,001,2022_Jun_15_1548,n_back,2021.2.3,59.987786486748504,
TB-16529098605915005.csv,6,0,left,,0,5,5,5,0,14,14,14,510.5581269000004,511.0581381000002,right,0,1.3277749999997468,510.5581269000004,510.5581269000004,01,001,2022_Jun_15_1548,n_back,2021.2.3,59.987786486748504,
TB-16529098605915005.csv,3,0,left,,0,5,5,5,0,15,15,15,514.0581752000007,514.5581719000002,left,1,2.387930800000504,514.0581752000007,514.0581752000007,01,001,2022_Jun_15_1548,n_back,2021.2.3,59.987786486748504,
TB-16529098605915005.csv,6,1,right,,0,5,5,5,0,16,16,16,517.5582290000002,518.0582234000003,right,1,1.127638100000695,517.5582290000002,517.5582290000002,01,001,2022_Jun_15_1548,n_back,2021.2.3,59.987786486748504,
TB-16529098605915005.csv,3,1,right,,0,5,5,5,0,17,17,17,521.0582557000007,521.5582721000001,left,0,1.0995050999999876,521.0582557000007,521.0582557000007,01,001,2022_Jun_15_1548,n_back,2021.2.3,59.987786486748504,
TB-16529098605915005.csv,7,0,left,,0,5,5,5,0,18,18,18,524.5583156000002,525.0583358000003,left,1,1.7116047999998045,524.5583156000002,524.5583156000002,01,001,2022_Jun_15_1548,n_back,2021.2.3,59.987786486748504,
TB-16529098605915005.csv,7,0,left,,0,5,5,5,0,19,19,19,528.0583627000005,528.5583700000007,right,0,1.635579300000245,528.0583627000005,528.0583627000005,01,001,2022_Jun_15_1548,n_back,2021.2.3,59.987786486748504,
TB-16529098605915005.csv,,,,,0,5,5,5,,,,,,,,,,,,01,001,2022_Jun_15_1548,n_back,2021.2.3,59.987786486748504,
OB-16529098597545102.csv,5,0,left,,0,6,6,6,0,0,0,0,536.2584610000004,536.7584704999999,left,1,0.3313367999999173,536.2584610000004,None,01,001,2022_Jun_15_1548,n_back,2021.2.3,59.987786486748504,
OB-16529098597545102.csv,5,1,right,,0,6,6,6,0,1,1,1,539.7585140000001,540.2585250000002,right,1,0.7834989000002679,539.7585140000001,539.7585140000001,01,001,2022_Jun_15_1548,n_back,2021.2.3,59.987786486748504,
OB-16529098597545102.csv,5,1,right,,0,6,6,6,0,2,2,2,543.2585400000007,543.7585454,right,1,0.3554781999991974,543.2585400000007,543.2585400000007,01,001,2022_Jun_15_1548,n_back,2021.2.3,59.987786486748504,
OB-16529098597545102.csv,2,0,left,,0,6,6,6,0,3,3,3,546.758597,547.2585975000002,left,1,0.7591418000001795,546.758597,546.758597,01,001,2022_Jun_15_1548,n_back,2021.2.3,59.987786486748504,
OB-16529098597545102.csv,2,1,right,,0,6,6,6,0,4,4,4,550.2586513000006,550.7586547999999,right,1,0.603178399999706,550.2586513000006,550.2586513000006,01,001,2022_Jun_15_1548,n_back,2021.2.3,59.987786486748504,
OB-16529098597545102.csv,2,1,right,,0,6,6,6,0,5,5,5,553.7586872000002,554.2586968000005,right,1,0.4790682000002562,553.7586872000002,553.7586872000002,01,001,2022_Jun_15_1548,n_back,2021.2.3,59.987786486748504,
OB-16529098597545102.csv,2,1,right,,0,6,6,6,0,6,6,6,557.2587366000007,557.7587285,right,1,0.4030314999999973,557.2587366000007,557.2587366000007,01,001,2022_Jun_15_1548,n_back,2021.2.3,59.987786486748504,
OB-16529098597545102.csv,6,0,left,,0,6,6,6,0,7,7,7,560.7587721,561.2587869000008,left,1,0.5190751000000091,560.7587721,560.7587721,01,001,2022_Jun_15_1548,n_back,2021.2.3,59.987786486748504,
OB-16529098597545102.csv,3,0,left,,0,6,6,6,0,8,8,8,564.2588352000002,564.7588374000006,left,1,0.7309147000005396,564.2588352000002,564.2588352000002,01,001,2022_Jun_15_1548,n_back,2021.2.3,59.987786486748504,
OB-16529098597545102.csv,6,0,left,,0,6,6,6,0,9,9,9,567.7588694000005,568.2588832000001,left,1,0.8948495000004186,567.7588694000005,567.7588694000005,01,001,2022_Jun_15_1548,n_back,2021.2.3,59.987786486748504,
OB-16529098597545102.csv,9,0,left,,0,6,6,6,0,10,10,10,571.2589182000002,571.7589232,left,1,0.7708123999991585,571.2589182000002,571.2589182000002,01,001,2022_Jun_15_1548,n_back,2021.2.3,59.987786486748504,
OB-16529098597545102.csv,2,0,left,,0,6,6,6,0,11,11,11,574.7589639000007,575.2589596000007,left,1,0.5029125999999451,574.7589639000007,574.7589639000007,01,001,2022_Jun_15_1548,n_back,2021.2.3,59.987786486748504,
OB-16529098597545102.csv,4,0,left,,0,6,6,6,0,12,12,12,578.2590051000006,578.7590268000004,left,1,0.49067659999946045,578.2590051000006,578.2590051000006,01,001,2022_Jun_15_1548,n_back,2021.2.3,59.987786486748504,
OB-16529098597545102.csv,6,0,left,,0,6,6,6,0,13,13,13,581.7590390000005,582.2590440000004,left,1,0.7027868999994098,581.7590390000005,581.7590390000005,01,001,2022_Jun_15_1548,n_back,2021.2.3,59.987786486748504,
OB-16529098597545102.csv,6,1,right,,0,6,6,6,0,14,14,14,585.2590736000002,585.7590994000002,right,1,0.6426524999997127,585.2590736000002,585.2590736000002,01,001,2022_Jun_15_1548,n_back,2021.2.3,59.987786486748504,
OB-16529098597545102.csv,6,1,right,,0,6,6,6,0,15,15,15,588.7591319000003,589.2591418000002,right,1,0.3906554999994114,588.7591319000003,588.7591319000003,01,001,2022_Jun_15_1548,n_back,2021.2.3,59.987786486748504,
OB-16529098597545102.csv,6,1,right,,0,6,6,6,0,16,16,16,592.2591932000005,592.7591988000004,right,1,0.3945291999998517,592.2591932000005,592.2591932000005,01,001,2022_Jun_15_1548,n_back,2021.2.3,59.987786486748504,
OB-16529098597545102.csv,6,1,right,,0,6,6,6,0,17,17,17,595.7592368000005,596.2592440000008,right,1,0.38256509999973787,595.7592368000005,595.7592368000005,01,001,2022_Jun_15_1548,n_back,2021.2.3,59.987786486748504,
OB-16529098597545102.csv,1,0,left,,0,6,6,6,0,18,18,18,599.2592821000007,599.7592831000002,left,1,0.5623530000002575,599.2592821000007,599.2592821000007,01,001,2022_Jun_15_1548,n_back,2021.2.3,59.987786486748504,
OB-16529098597545102.csv,7,0,left,,0,6,6,6,0,19,19,19,602.7593226000008,603.2593126000002,left,1,0.50245090000044,602.7593226000008,602.7593226000008,01,001,2022_Jun_15_1548,n_back,2021.2.3,59.987786486748504,
OB-16529098597545102.csv,,,,,0,6,6,6,,,,,,,,,,,,01,001,2022_Jun_15_1548,n_back,2021.2.3,59.987786486748504,
TB-16529098610107052.csv,7,0,left,,0,7,7,7,0,0,0,0,613.8095007000002,614.3094621,left,1,0.572309099999984,613.8095007000002,None,01,001,2022_Jun_15_1548,n_back,2021.2.3,59.987786486748504,
TB-16529098610107052.csv,9,0,left,,0,7,7,7,0,1,1,1,617.3095028000007,617.8095259000002,left,1,0.44807419999960985,617.3095028000007,617.3095028000007,01,001,2022_Jun_15_1548,n_back,2021.2.3,59.987786486748504,
TB-16529098610107052.csv,9,0,left,,0,7,7,7,0,2,2,2,620.8095611000008,621.3095533000005,left,1,1.8760907999994743,620.8095611000008,620.8095611000008,01,001,2022_Jun_15_1548,n_back,2021.2.3,59.987786486748504,
TB-16529098610107052.csv,5,0,left,,0,7,7,7,0,3,3,3,624.3096104000006,624.8096094000002,left,1,1.3360395999998218,624.3096104000006,624.3096104000006,01,001,2022_Jun_15_1548,n_back,2021.2.3,59.987786486748504,
TB-16529098610107052.csv,9,1,right,,0,7,7,7,0,4,4,4,627.8096544,628.3096590000005,right,1,1.1640237000001434,627.8096544,627.8096544,01,001,2022_Jun_15_1548,n_back,2021.2.3,59.987786486748504,
TB-16529098610107052.csv,5,1,right,,0,7,7,7,0,5,5,5,631.3096915000006,631.8097087000006,right,1,1.6799098000001322,631.3096915000006,631.3096915000006,01,001,2022_Jun_15_1548,n_back,2021.2.3,59.987786486748504,
TB-16529098610107052.csv,1,0,left,,0,7,7,7,0,6,6,6,634.8097348000001,635.3097561000004,left,1,1.1398914000001241,634.8097348000001,634.8097348000001,01,001,2022_Jun_15_1548,n_back,2021.2.3,59.987786486748504,
TB-16529098610107052.csv,5,1,right,,0,7,7,7,0,7,7,7,638.3097922000006,638.8098007000008,right,1,0.9199066999999559,638.3097922000006,638.3097922000006,01,001,2022_Jun_15_1548,n_back,2021.2.3,59.987786486748504,
TB-16529098610107052.csv,9,0,left,,0,7,7,7,0,8,8,8,641.8098531000005,642.3098399,left,1,1.067678800000067,641.8098531000005,641.8098531000005,01,001,2022_Jun_15_1548,n_back,2021.2.3,59.987786486748504,
TB-16529098610107052.csv,4,0,left,,0,7,7,7,0,9,9,9,645.3098699000002,645.8099109000004,left,1,1.0237548999994033,645.3098699000002,645.3098699000002,01,001,2022_Jun_15_1548,n_back,2021.2.3,59.987786486748504,
TB-16529098610107052.csv,9,1,right,,0,7,7,7,0,10,10,10,648.8099207000005,649.3099345,right,1,0.4197764999998981,648.8099207000005,648.8099207000005,01,001,2022_Jun_15_1548,n_back,2021.2.3,59.987786486748504,
TB-16529098610107052.csv,4,1,right,,0,7,7,7,0,11,11,11,652.3099748000004,652.8099730000004,right,1,1.1114936999993006,652.3099748000004,652.3099748000004,01,001,2022_Jun_15_1548,n_back,2021.2.3,59.987786486748504,
TB-16529098610107052.csv,7,0,left,,0,7,7,7,0,12,12,12,655.8100225000007,656.3100198000002,left,1,1.2275602999998227,655.8100225000007,655.8100225000007,01,001,2022_Jun_15_1548,n_back,2021.2.3,59.987786486748504,
TB-16529098610107052.csv,8,0,left,,0,7,7,7,0,13,13,13,659.3100639000004,659.8100635000001,left,1,0.8474491999995735,659.3100639000004,659.3100639000004,01,001,2022_Jun_15_1548,n_back,2021.2.3,59.987786486748504,
TB-16529098610107052.csv,8,0,left,,0,7,7,7,0,14,14,14,662.8101130000005,663.3101431000005,left,1,1.3795088999995642,662.8101130000005,662.8101130000005,01,001,2022_Jun_15_1548,n_back,2021.2.3,59.987786486748504,
TB-16529098610107052.csv,8,1,right,,0,7,7,7,0,15,15,15,666.3101506000003,666.8101550000001,right,1,0.6152638000003208,666.3101506000003,666.3101506000003,01,001,2022_Jun_15_1548,n_back,2021.2.3,59.987786486748504,
TB-16529098610107052.csv,2,0,left,,0,7,7,7,0,16,16,16,669.8102041000002,670.3101958000007,left,1,0.5072689999997237,669.8102041000002,669.8102041000002,01,001,2022_Jun_15_1548,n_back,2021.2.3,59.987786486748504,
TB-16529098610107052.csv,8,1,right,,0,7,7,7,0,17,17,17,673.3102398000001,673.8102526000002,right,1,0.7352627000000211,673.3102398000001,673.3102398000001,01,001,2022_Jun_15_1548,n_back,2021.2.3,59.987786486748504,
TB-16529098610107052.csv,6,0,left,,0,7,7,7,0,18,18,18,676.8102948000005,677.3102908999999,left,1,1.0751293999992413,676.8102948000005,676.8102948000005,01,001,2022_Jun_15_1548,n_back,2021.2.3,59.987786486748504,
TB-16529098610107052.csv,8,1,right,,0,7,7,7,0,19,19,19,680.3103404000003,680.8103347000006,right,1,1.2393331000002945,680.3103404000003,680.3103404000003,01,001,2022_Jun_15_1548,n_back,2021.2.3,59.987786486748504,
TB-16529098610107052.csv,,,,,0,7,7,7,,,,,,,,,,,,01,001,2022_Jun_15_1548,n_back,2021.2.3,59.987786486748504,
TB-1652909860659721.csv,2,0,left,,0,8,8,8,0,0,0,0,688.9438174000006,689.4437927000008,left,1,0.9897736999992048,688.9438174000006,None,01,001,2022_Jun_15_1548,n_back,2021.2.3,59.987786486748504,
TB-1652909860659721.csv,7,0,left,,0,8,8,8,0,1,1,1,692.4437929000005,692.9438164000003,left,1,0.4657078999998703,692.4437929000005,692.4437929000005,01,001,2022_Jun_15_1548,n_back,2021.2.3,59.987786486748504,
TB-1652909860659721.csv,7,0,left,,0,8,8,8,0,2,2,2,695.9438669000001,696.4438752000005,left,1,1.7017437000004065,695.9438669000001,695.9438669000001,01,001,2022_Jun_15_1548,n_back,2021.2.3,59.987786486748504,
TB-1652909860659721.csv,1,0,left,,0,8,8,8,0,3,3,3,699.4439102000006,699.9439319000003,left,1,0.9056351999997787,699.4439102000006,699.4439102000006,01,001,2022_Jun_15_1548,n_back,2021.2.3,59.987786486748504,
TB-1652909860659721.csv,1,0,left,,0,8,8,8,0,4,4,4,702.9439711000005,703.4439810000003,left,1,1.6935456000001068,702.9439711000005,702.9439711000005,01,001,2022_Jun_15_1548,n_back,2021.2.3,59.987786486748504,
TB-1652909860659721.csv,1,1,right,,0,8,8,8,0,5,5,5,706.4440176000007,706.9440209000004,right,1,0.7373476000002483,706.4440176000007,706.4440176000007,01,001,2022_Jun_15_1548,n_back,2021.2.3,59.987786486748504,
TB-1652909860659721.csv,9,0,left,,0,8,8,8,0,6,6,6,709.9440570000006,710.4440587000008,left,1,0.5174653000003673,709.9440570000006,709.9440570000006,01,001,2022_Jun_15_1548,n_back,2021.2.3,59.987786486748504,
TB-1652909860659721.csv,1,1,right,,0,8,8,8,0,7,7,7,713.4441020000004,713.9441158,right,1,1.0331230000001597,713.4441020000004,713.4441020000004,01,001,2022_Jun_15_1548,n_back,2021.2.3,59.987786486748504,
TB-1652909860659721.csv,9,1,right,,0,8,8,8,0,8,8,8,716.9441519000002,717.4441650000008,right,1,1.1493953999997757,716.9441519000002,716.9441519000002,01,001,2022_Jun_15_1548,n_back,2021.2.3,59.987786486748504,
TB-1652909860659721.csv,5,0,left,,0,8,8,8,0,9,9,9,720.4441792000007,720.9442046000004,left,1,0.9610663999992539,720.4441792000007,720.4441792000007,01,001,2022_Jun_15_1548,n_back,2021.2.3,59.987786486748504,
TB-1652909860659721.csv,9,1,right,,0,8,8,8,0,10,10,10,723.9442583,724.4442545000002,right,1,1.44502569999986,723.9442583,723.9442583,01,001,2022_Jun_15_1548,n_back,2021.2.3,59.987786486748504,
TB-1652909860659721.csv,6,0,left,,0,8,8,8,0,11,11,11,727.4442966000006,727.9442850000005,left,1,0.8091324999995777,727.4442966000006,727.4442966000006,01,001,2022_Jun_15_1548,n_back,2021.2.3,59.987786486748504,
TB-1652909860659721.csv,9,1,right,,0,8,8,8,0,12,12,12,730.9443321000008,731.4443497000002,right,1,0.605217299999822,730.9443321000008,730.9443321000008,01,001,2022_Jun_15_1548,n_back,2021.2.3,59.987786486748504,
TB-1652909860659721.csv,0,0,left,,0,8,8,8,0,13,13,13,734.4443798000002,734.9443928000001,None,0,,734.4443798000002,734.4443798000002,01,001,2022_Jun_15_1548,n_back,2021.2.3,59.987786486748504,
TB-1652909860659721.csv,9,1,right,,0,8,8,8,0,14,14,14,737.9444459000006,738.4444311000007,right,1,2.3729577999993126,737.9444459000006,737.9444459000006,01,001,2022_Jun_15_1548,n_back,2021.2.3,59.987786486748504,
TB-1652909860659721.csv,4,0,left,,0,8,8,8,0,15,15,15,741.4444729000006,741.9444780000003,left,1,1.048738599999524,741.4444729000006,741.4444729000006,01,001,2022_Jun_15_1548,n_back,2021.2.3,59.987786486748504,
TB-1652909860659721.csv,2,0,left,,0,8,8,8,0,16,16,16,744.9445203000005,745.4445276000006,left,1,1.052730000000338,744.9445203000005,744.9445203000005,01,001,2022_Jun_15_1548,n_back,2021.2.3,59.987786486748504,
TB-1652909860659721.csv,4,1,right,,0,8,8,8,0,17,17,17,748.4445660000001,748.9445460000006,right,1,0.3368761000001541,748.4445660000001,748.4445660000001,01,001,2022_Jun_15_1548,n_back,2021.2.3,59.987786486748504,
TB-1652909860659721.csv,4,0,left,,0,8,8,8,0,18,18,18,751.9445999,752.4446130000006,left,1,1.8606853999999657,751.9445999,751.9445999,01,001,2022_Jun_15_1548,n_back,2021.2.3,59.987786486748504,
TB-1652909860659721.csv,4,1,right,,0,8,8,8,0,19,19,19,755.4446480000006,755.9446504000007,right,1,0.7286801000000196,755.4446480000006,755.4446480000006,01,001,2022_Jun_15_1548,n_back,2021.2.3,59.987786486748504,
TB-1652909860659721.csv,,,,,0,8,8,8,,,,,,,,,,,,01,001,2022_Jun_15_1548,n_back,2021.2.3,59.987786486748504,
