task_order,stim_time,inter_stim_time,x_pos,y_pos,match,corr_key,main_loop.thisRepN,main_loop.thisTrialN,main_loop.thisN,main_loop.thisIndex,vSAT_loop.thisRepN,vSAT_loop.thisTrialN,vSAT_loop.thisN,vSAT_loop.thisIndex,inter_stim_text.started,inter_stim_text.stopped,vSAT_square.started,vSAT_square.stopped,stim_resp.keys,stim_resp.corr,stim_resp.rt,stim_resp.started,stim_resp.stopped,response_sound.started,response_sound.stopped,feedback_sound.started,feedback_sound.stopped,participant,session,date,expName,psychopyVersion,frameRate,
SAT_stims-1652909861486579.csv,0.05,1,0,0,0,left,0,0,0,0,0,0,0,0,16.961313999999902,None,17.961330899999894,None,left,1,0.9792324000000008,18.01132839999991,None,18.094654439999932,None,19.011327340000026,None,02,001,2022_Jun_17_1342,vSAT,2021.2.3,59.9714895539394,
SAT_stims-1652909861486579.csv,0.05,3,0,0,0,left,0,0,0,0,0,1,1,1,19.528009899999915,None,22.528046800000084,None,left,1,0.7487871999999243,22.57806310000001,None,22.661399740000025,23.094774200000074,23.344753740000034,None,02,001,2022_Jun_17_1342,vSAT,2021.2.3,59.9714895539394,
SAT_stims-1652909861486579.csv,0.028999999999999998,1,0,0,0,left,0,0,0,0,0,2,2,2,23.86139439999988,None,24.861434200000076,None,left,1,0.9761261000001014,24.894777400000066,None,24.978089940000064,None,25.894768539999905,None,02,001,2022_Jun_17_1342,vSAT,2021.2.3,59.9714895539394,
SAT_stims-1652909861486579.csv,0.05,1,0,0,1,right,0,0,0,0,0,3,3,3,26.411457400000018,None,27.411485699999957,None,right,1,0.5534646000000976,27.461442099999886,None,27.544795939999904,None,28.044815840000002,None,02,001,2022_Jun_17_1342,vSAT,2021.2.3,59.9714895539394,
SAT_stims-1652909861486579.csv,0.05,1,0,0,1,right,0,0,0,0,0,4,4,4,28.561484199999995,None,29.56151,None,right,1,0.3872332999999344,29.61150550000002,None,29.694845540000006,None,30.04479907999994,None,02,001,2022_Jun_17_1342,vSAT,2021.2.3,59.9714895539394,
SAT_stims-1652909861486579.csv,0.028999999999999998,2,0,0,1,right,0,0,0,0,0,5,5,5,30.561533600000075,None,32.561537799999996,None,right,1,0.5399406999999883,32.59489749999989,None,32.67822463999987,None,33.161553140000066,None,02,001,2022_Jun_17_1342,vSAT,2021.2.3,59.9714895539394,
SAT_stims-1652909861486579.csv,0.028999999999999998,3,0,0,1,right,0,0,0,0,0,6,6,6,33.67824789999986,None,36.678291599999966,None,right,1,0.4230790000001434,36.71162120000008,None,36.794940939999876,None,37.178279280000055,None,02,001,2022_Jun_17_1342,vSAT,2021.2.3,59.9714895539394,
SAT_stims-1652909861486579.csv,0.05,3,0,0,1,right,0,0,0,0,0,7,7,7,37.694971200000055,None,40.69500909999988,None,right,1,0.2457088000001022,40.745013499999914,None,40.82831143999992,None,41.02834637999999,None,02,001,2022_Jun_17_1342,vSAT,2021.2.3,59.9714895539394,
SAT_stims-1652909861486579.csv,0.017,1,0,0,0,left,0,0,0,0,0,8,8,8,41.5450186999999,None,42.545049500000005,None,left,1,0.5884556000000885,42.57838379999998,None,42.66171134000005,43.095055499999944,43.195059339999986,None,02,001,2022_Jun_17_1342,vSAT,2021.2.3,59.9714895539394,
SAT_stims-1652909861486579.csv,0.017,1,0,0,0,left,0,0,0,0,0,9,9,9,43.71174580000002,None,44.71174810000002,None,left,1,0.5816712999999254,44.74507270000004,None,44.82841183999999,None,45.34508224000005,None,02,001,2022_Jun_17_1342,vSAT,2021.2.3,59.9714895539394,
SAT_stims-1652909861486579.csv,0.05,3,0,0,0,left,0,0,0,0,0,10,10,10,45.86175800000001,None,48.86181080000006,None,left,1,0.43081550000010793,48.911811899999975,None,48.995143339999956,None,49.378456380000074,None,02,001,2022_Jun_17_1342,vSAT,2021.2.3,59.9714895539394,
SAT_stims-1652909861486579.csv,0.017,2,0,0,0,left,0,0,0,0,0,11,11,11,49.89515540000002,None,51.89519539999992,None,left,1,0.4544303999998647,51.928515999999945,None,52.01185794000007,None,52.42849678000002,None,02,001,2022_Jun_17_1342,vSAT,2021.2.3,59.9714895539394,
SAT_stims-1652909861486579.csv,0.017,2,0,0,1,right,0,0,0,0,0,12,12,12,52.94521529999997,None,54.94522949999987,None,right,1,0.2362210999999661,54.978563899999926,None,55.06191253999991,None,55.26191247999995,None,02,001,2022_Jun_17_1342,vSAT,2021.2.3,59.9714895539394,
SAT_stims-1652909861486579.csv,0.017,2,0,0,0,left,0,0,0,0,0,13,13,13,55.778590599999916,None,57.77860929999997,None,left,1,0.49096639999993386,57.81191669999998,None,57.895253140000065,None,58.34527938000005,None,02,001,2022_Jun_17_1342,vSAT,2021.2.3,59.9714895539394,
SAT_stims-1652909861486579.csv,0.028999999999999998,3,0,0,0,left,0,0,0,0,0,14,14,14,58.86197179999999,None,61.86200680000002,None,left,1,0.4553355999998985,61.89534830000002,None,61.97867314,None,62.39536117999987,None,02,001,2022_Jun_17_1342,vSAT,2021.2.3,59.9714895539394,
SAT_stims-1652909861486579.csv,0.028999999999999998,3,0,0,0,left,0,0,0,0,0,15,15,15,62.91202559999988,None,65.91207989999998,None,left,1,0.46948059999999714,65.94537730000002,None,66.02871514000007,None,66.46206268,None,02,001,2022_Jun_17_1342,vSAT,2021.2.3,59.9714895539394,
SAT_stims-1652909861486579.csv,0.05,3,0,0,0,left,0,0,0,0,0,16,16,16,66.97876259999998,None,69.97881540000003,None,left,1,0.4180886999999984,70.02881249999996,None,70.11213894000007,None,70.46214883999987,70.97882729999992,02,001,2022_Jun_17_1342,vSAT,2021.2.3,59.9714895539394,
SAT_stims-1652909861486579.csv,0.05,1,0,0,1,right,0,0,0,0,0,17,17,17,70.99549520000005,None,71.99549479999996,None,right,1,0.35332919999996193,72.04550909999989,None,72.12883863999996,None,72.4454939799999,None,02,001,2022_Jun_17_1342,vSAT,2021.2.3,59.9714895539394,
SAT_stims-1652909861486579.csv,0.017,2,0,0,0,left,0,0,0,0,0,18,18,18,72.96218369999997,None,74.96223149999992,None,left,1,0.7631971000000703,74.99554979999994,None,75.07889363999998,None,75.77888113999988,None,02,001,2022_Jun_17_1342,vSAT,2021.2.3,59.9714895539394,
SAT_stims-1652909861486579.csv,0.028999999999999998,1,0,0,0,left,0,0,0,0,0,19,19,19,76.29557840000007,None,77.29559289999997,None,left,1,0.46175110000012864,77.32895789999998,None,77.4122514399999,None,77.82891518000005,None,02,001,2022_Jun_17_1342,vSAT,2021.2.3,59.9714895539394,
SAT_stims-1652909861486579.csv,0.028999999999999998,3,0,0,1,right,0,0,0,0,0,20,20,20,78.34559999999988,None,81.34566599999994,None,right,1,0.28390479999984564,81.37897810000004,None,81.46231354000001,None,81.69564978000002,None,02,001,2022_Jun_17_1342,vSAT,2021.2.3,59.9714895539394,
SAT_stims-1652909861486579.csv,0.017,3,0,0,0,left,0,0,0,0,0,21,21,21,82.2123454,None,85.21238879999987,None,left,1,0.6409779000000526,85.2457101,None,85.32904203999992,None,85.91238013999991,None,02,001,2022_Jun_17_1342,vSAT,2021.2.3,59.9714895539394,
SAT_stims-1652909861486579.csv,0.017,1,0,0,0,left,0,0,0,0,0,22,22,22,86.42903389999992,None,87.42908680000005,None,left,1,0.7602133000000322,87.46242050000001,None,87.54571953999998,None,88.24577284000001,None,02,001,2022_Jun_17_1342,vSAT,2021.2.3,59.9714895539394,
SAT_stims-1652909861486579.csv,0.028999999999999998,1,0,0,0,left,0,0,0,0,0,23,23,23,88.74579449999987,None,89.74578339999994,None,left,1,0.5875826999999845,89.77913209999997,None,89.8624107399999,None,90.39577394000007,None,02,001,2022_Jun_17_1342,vSAT,2021.2.3,59.9714895539394,
SAT_stims-1652909861486579.csv,0.028999999999999998,1,0,0,0,left,0,0,0,0,0,24,24,24,90.91249670000002,None,91.91248960000007,None,left,1,0.5810710000000654,91.94579380000005,None,92.02913713999992,None,92.54582714000007,None,02,001,2022_Jun_17_1342,vSAT,2021.2.3,59.9714895539394,
SAT_stims-1652909861486579.csv,0.017,2,0,0,1,right,0,0,0,0,0,25,25,25,93.04586790000008,None,95.04584329999989,None,right,1,0.2635526999999911,95.07917999999995,None,95.16254024000004,None,95.37916688000004,None,02,001,2022_Jun_17_1342,vSAT,2021.2.3,59.9714895539394,
SAT_stims-1652909861486579.csv,0.05,1,0,0,0,left,0,0,0,0,0,26,26,26,95.89588460000004,None,96.89590279999993,None,left,1,0.6530555000001641,96.94589489999998,None,97.02921703999986,None,97.62922884000004,None,02,001,2022_Jun_17_1342,vSAT,2021.2.3,59.9714895539394,
SAT_stims-1652909861486579.csv,0.028999999999999998,3,0,0,1,right,0,0,0,0,0,27,27,27,98.14592279999988,None,101.1459534999999,None,right,1,0.3397165000001223,101.17929800000002,None,101.26261404000006,None,101.56262417999991,None,02,001,2022_Jun_17_1342,vSAT,2021.2.3,59.9714895539394,
SAT_stims-1652909861486579.csv,0.05,1,0,0,1,right,0,0,0,0,0,28,28,28,102.07933600000001,None,103.07932970000002,None,right,1,0.37342119999993884,103.12932610000007,None,103.21264683999998,None,103.54597997999994,None,02,001,2022_Jun_17_1342,vSAT,2021.2.3,59.9714895539394,
SAT_stims-1652909861486579.csv,0.05,3,0,0,1,right,0,0,0,0,0,29,29,29,104.04599660000008,None,107.04606039999999,None,right,1,0.4227560000001631,107.09604839999997,None,107.17938803999986,None,107.56271047999994,None,02,001,2022_Jun_17_1342,vSAT,2021.2.3,59.9714895539394,
SAT_stims-1652909861486579.csv,,,,,,,0,0,0,0,,,,,,,,,,,,,,,,,,02,001,2022_Jun_17_1342,vSAT,2021.2.3,59.9714895539394,
vSAT_stims-16529098615324342.csv,0.05,2,0.25,-0.25,1,right,0,1,1,1,0,0,0,0,111.74615870000002,None,113.7461687,None,right,1,0.4906968999998753,113.79616979999992,None,113.87951434000006,None,114.32948717999997,None,02,001,2022_Jun_17_1342,vSAT,2021.2.3,59.9714895539394,
vSAT_stims-16529098615324342.csv,0.017,1,0.25,0.25,1,right,0,1,1,1,0,1,1,1,114.8461812999999,None,115.8461683999999,None,right,1,0.3751082999999653,115.87951840000005,None,115.9628459399999,None,116.29615578000002,None,02,001,2022_Jun_17_1342,vSAT,2021.2.3,59.9714895539394,
vSAT_stims-16529098615324342.csv,0.028999999999999998,2,0.25,-0.25,0,left,0,1,1,1,0,2,2,2,116.79621440000005,None,118.79623990000005,None,left,1,0.38518999999996595,118.82957859999988,None,118.91287844000003,None,119.26289697999991,None,02,001,2022_Jun_17_1342,vSAT,2021.2.3,59.9714895539394,
vSAT_stims-16529098615324342.csv,0.05,3,-0.25,-0.25,0,left,0,1,1,1,0,3,3,3,119.77959529999998,None,122.7796358999999,None,left,1,0.4973600999999235,122.82962659999998,None,122.91296384000002,None,123.36297498000008,None,02,001,2022_Jun_17_1342,vSAT,2021.2.3,59.9714895539394,
vSAT_stims-16529098615324342.csv,0.017,1,-0.25,-0.25,1,right,0,1,1,1,0,4,4,4,123.87964529999999,None,124.87967320000007,None,left,0,0.42963669999994636,124.91301109999995,None,124.99633943999997,None,125.36297003999998,125.87971399999992,02,001,2022_Jun_17_1342,vSAT,2021.2.3,59.9714895539394,
vSAT_stims-16529098615324342.csv,0.05,1,-0.25,-0.25,1,right,0,1,1,1,0,5,5,5,125.89634550000005,None,126.8963667999999,None,right,1,0.4764668000000256,126.9463647,None,127.02966943999995,None,127.46302178000005,None,02,001,2022_Jun_17_1342,vSAT,2021.2.3,59.9714895539394,
vSAT_stims-16529098615324342.csv,0.05,1,0.0,0.0,0,left,0,1,1,1,0,6,6,6,127.97971860000007,None,128.9797228,None,left,1,0.5531751999999415,129.02972939999995,None,129.11306384000005,None,129.61308253999988,None,02,001,2022_Jun_17_1342,vSAT,2021.2.3,59.9714895539394,
vSAT_stims-16529098615324342.csv,0.05,2,-0.25,0.25,0,left,0,1,1,1,0,7,7,7,130.12975189999997,None,132.12978509999994,None,left,1,0.6031599999998889,132.17977999999994,None,132.26311584,None,132.81311274,None,02,001,2022_Jun_17_1342,vSAT,2021.2.3,59.9714895539394,
vSAT_stims-16529098615324342.csv,0.028999999999999998,2,-0.25,-0.25,0,left,0,1,1,1,0,8,8,8,133.32981769999992,None,135.32980329999987,None,left,1,0.47537390000002233,135.36315330000002,None,135.4465020400001,None,135.8631378400001,136.37983039999995,02,001,2022_Jun_17_1342,vSAT,2021.2.3,59.9714895539394,
vSAT_stims-16529098615324342.csv,0.028999999999999998,3,0.25,0.25,0,left,0,1,1,1,0,9,9,9,136.39652690000003,None,139.39656530000002,None,left,1,0.3928987000001598,139.4298907,None,139.51321483999988,None,139.86322938,None,02,001,2022_Jun_17_1342,vSAT,2021.2.3,59.9714895539394,
vSAT_stims-16529098615324342.csv,0.05,3,-0.25,0.25,1,right,0,1,1,1,0,10,10,10,140.37987440000006,None,143.37993890000007,None,right,1,0.280729699999938,143.42996169999992,None,143.51329244000004,None,143.74659348000012,None,02,001,2022_Jun_17_1342,vSAT,2021.2.3,59.9714895539394,
vSAT_stims-16529098615324342.csv,0.028999999999999998,1,0.0,0.0,1,right,0,1,1,1,0,11,11,11,144.26331890000006,None,145.2633123999999,None,right,1,0.33419340000000375,145.29666120000002,None,145.37998234000003,None,145.66333008000004,None,02,001,2022_Jun_17_1342,vSAT,2021.2.3,59.9714895539394,
vSAT_stims-16529098615324342.csv,0.05,2,-0.25,-0.25,0,left,0,1,1,1,0,12,12,12,146.17999469999995,None,148.18007439999997,None,left,1,0.8726575999999113,148.23004489999994,None,148.3133450399999,None,149.13003063999992,None,02,001,2022_Jun_17_1342,vSAT,2021.2.3,59.9714895539394,
vSAT_stims-16529098615324342.csv,0.017,2,0.0,0.0,0,left,0,1,1,1,0,13,13,13,149.64671559999988,None,151.64677200000006,None,left,1,0.9588681000000179,151.68007579999994,None,151.76338674000004,None,152.66342003999995,None,02,001,2022_Jun_17_1342,vSAT,2021.2.3,59.9714895539394,
vSAT_stims-16529098615324342.csv,0.05,2,-0.25,-0.25,1,right,0,1,1,1,0,14,14,14,153.1800905,None,155.18015349999996,None,left,0,0.33663479999995616,155.23014620000004,None,155.31349774000006,None,155.61346708000008,None,02,001,2022_Jun_17_1342,vSAT,2021.2.3,59.9714895539394,
vSAT_stims-16529098615324342.csv,0.05,1,0.25,-0.25,0,left,0,1,1,1,0,15,15,15,156.13014090000001,None,157.1301747,None,left,1,0.7545445000000655,157.18016770000008,None,157.2635026399999,None,157.96350534000004,None,02,001,2022_Jun_17_1342,vSAT,2021.2.3,59.9714895539394,
vSAT_stims-16529098615324342.csv,0.028999999999999998,3,0.25,-0.25,1,right,0,1,1,1,0,16,16,16,158.48020070000007,None,161.48022519999995,None,right,1,0.45326939999995375,161.5135459999999,None,161.59689673999998,None,162.01354778000007,None,02,001,2022_Jun_17_1342,vSAT,2021.2.3,59.9714895539394,
vSAT_stims-16529098615324342.csv,0.05,2,-0.25,-0.25,0,left,0,1,1,1,0,17,17,17,162.53023140000005,None,164.53024370000003,None,left,1,0.6985614999998688,164.580244,None,164.6635979400001,None,165.29697814000002,None,02,001,2022_Jun_17_1342,vSAT,2021.2.3,59.9714895539394,
vSAT_stims-16529098615324342.csv,0.017,2,-0.25,0.25,0,left,0,1,1,1,0,18,18,18,165.79701799999998,None,167.79699319999986,None,left,1,0.616465000000062,167.8303664,None,167.91365933999992,None,168.46364963999991,None,02,001,2022_Jun_17_1342,vSAT,2021.2.3,59.9714895539394,
vSAT_stims-16529098615324342.csv,0.017,2,-0.25,-0.25,0,left,0,1,1,1,0,19,19,19,168.98032319999993,None,170.9803296,None,left,1,0.569216200000028,171.0137150999999,None,171.09703584000005,None,171.6137165400001,None,02,001,2022_Jun_17_1342,vSAT,2021.2.3,59.9714895539394,
vSAT_stims-16529098615324342.csv,0.05,1,-0.25,0.25,1,right,0,1,1,1,0,20,20,20,172.130408,None,173.13043249999987,None,right,1,0.5623556000000463,173.1804090999999,None,173.26374154,None,173.7637600399999,None,02,001,2022_Jun_17_1342,vSAT,2021.2.3,59.9714895539394,
vSAT_stims-16529098615324342.csv,0.017,2,0.25,0.25,0,left,0,1,1,1,0,21,21,21,174.28045810000003,None,176.28047949999996,None,left,1,0.6929969999998775,176.31380880000006,None,176.39711163999988,None,177.03045544000003,None,02,001,2022_Jun_17_1342,vSAT,2021.2.3,59.9714895539394,
vSAT_stims-16529098615324342.csv,0.017,1,0.25,-0.25,0,left,0,1,1,1,0,22,22,22,177.54715179999994,None,178.54715149999993,None,left,1,0.4903896999999233,178.58051290000003,None,178.66382774000004,None,179.11383497999998,None,02,001,2022_Jun_17_1342,vSAT,2021.2.3,59.9714895539394,
vSAT_stims-16529098615324342.csv,0.028999999999999998,2,0.25,-0.25,0,left,0,1,1,1,0,23,23,23,179.63048630000003,None,181.6305324,None,left,1,0.43102379999982077,181.66387910000003,None,181.74724913999995,None,182.13054748000002,None,02,001,2022_Jun_17_1342,vSAT,2021.2.3,59.9714895539394,
vSAT_stims-16529098615324342.csv,0.017,3,0.25,0.25,1,right,0,1,1,1,0,24,24,24,182.64723589999994,None,185.647293,None,right,1,0.2702818999998726,185.6806185999999,None,185.76395433999988,None,185.9972733799999,None,02,001,2022_Jun_17_1342,vSAT,2021.2.3,59.9714895539394,
vSAT_stims-16529098615324342.csv,0.05,3,-0.25,0.25,1,right,0,1,1,1,0,25,25,25,186.51396909999994,None,189.51400519999993,None,right,1,0.4349065999999766,189.56400740000004,None,189.6473392399999,None,190.03068388000008,None,02,001,2022_Jun_17_1342,vSAT,2021.2.3,59.9714895539394,
vSAT_stims-16529098615324342.csv,0.017,2,-0.25,-0.25,1,right,0,1,1,1,0,26,26,26,190.5473417999999,None,192.54738969999994,None,right,1,0.3780269999999746,192.580735,None,192.66405003999995,None,192.99737388000005,None,02,001,2022_Jun_17_1342,vSAT,2021.2.3,59.9714895539394,
vSAT_stims-16529098615324342.csv,0.05,3,0.25,0.25,1,right,0,1,1,1,0,27,27,27,193.51405640000007,None,196.51410800000008,None,right,1,0.3306063999998514,196.56410759999994,None,196.6474613399999,None,196.93077707999998,None,02,001,2022_Jun_17_1342,vSAT,2021.2.3,59.9714895539394,
vSAT_stims-16529098615324342.csv,0.017,1,0.25,-0.25,0,left,0,1,1,1,0,28,28,28,197.44745749999993,None,198.4474854,None,left,1,0.6539801000001262,198.48082249999993,None,198.56414393999995,None,199.16416693999992,None,02,001,2022_Jun_17_1342,vSAT,2021.2.3,59.9714895539394,
vSAT_stims-16529098615324342.csv,0.05,2,0.25,-0.25,1,right,0,1,1,1,0,29,29,29,199.68084399999998,None,201.6808896,None,right,1,0.5238808999999947,201.73087609999993,None,201.8142103400001,None,202.2808674399999,None,02,001,2022_Jun_17_1342,vSAT,2021.2.3,59.9714895539394,
vSAT_stims-16529098615324342.csv,,,,,,,0,1,1,1,,,,,,,,,,,,,,,,,,02,001,2022_Jun_17_1342,vSAT,2021.2.3,59.9714895539394,
SAT_stims-16529098615025146.csv,0.05,2,0,0,0,left,0,2,2,2,0,0,0,0,204.99759799999993,None,206.99762710000005,None,left,1,0.8871187999998256,207.04761140000005,None,207.13091753999998,207.56440129999987,207.96427784000008,None,02,001,2022_Jun_17_1342,vSAT,2021.2.3,59.9714895539394,
SAT_stims-16529098615025146.csv,0.05,1,0,0,0,left,0,2,2,2,0,1,1,1,208.48097770000004,None,209.48098979999986,None,left,1,0.9475650000001679,209.53099309999993,None,209.61432294000002,None,210.49767303999994,None,02,001,2022_Jun_17_1342,vSAT,2021.2.3,59.9714895539394,
SAT_stims-16529098615025146.csv,0.05,1,0,0,0,left,0,2,2,2,0,2,2,2,211.01433799999995,None,212.01437220000003,None,left,1,0.8303412000000208,212.0643857,None,212.14768794000003,None,212.91434013999998,None,02,001,2022_Jun_17_1342,vSAT,2021.2.3,59.9714895539394,
SAT_stims-16529098615025146.csv,0.05,3,0,0,0,left,0,2,2,2,0,3,3,3,213.43104700000004,None,216.43110520000005,None,left,1,0.5735245999999279,216.48110969999993,None,216.56442804,None,217.08109904000008,None,02,001,2022_Jun_17_1342,vSAT,2021.2.3,59.9714895539394,
SAT_stims-16529098615025146.csv,0.017,3,0,0,0,left,0,2,2,2,0,4,4,4,217.59779200000003,None,220.59781599999997,None,left,1,0.7436394000001201,220.63117540000007,None,220.7145017399999,None,221.39782864,None,02,001,2022_Jun_17_1342,vSAT,2021.2.3,59.9714895539394,
SAT_stims-16529098615025146.csv,0.05,2,0,0,1,right,0,2,2,2,0,5,5,5,221.91451140000004,None,223.91454539999995,None,right,1,0.48228389999985666,223.96456209999997,None,224.04788063999996,None,224.4812198799999,None,02,001,2022_Jun_17_1342,vSAT,2021.2.3,59.9714895539394,
SAT_stims-16529098615025146.csv,0.05,1,0,0,0,left,0,2,2,2,0,6,6,6,224.99790400000006,None,225.99791379999988,None,left,1,0.782861099999991,226.04788660000008,None,226.13124094000005,226.56460300000003,226.84794003999997,None,02,001,2022_Jun_17_1342,vSAT,2021.2.3,59.9714895539394,
SAT_stims-16529098615025146.csv,0.017,1,0,0,1,right,0,2,2,2,0,7,7,7,227.3645939999999,None,228.36461209999993,None,right,1,0.6888162000000193,228.39797840000006,None,228.48126553999992,228.91468220000002,229.11461504000005,None,02,001,2022_Jun_17_1342,vSAT,2021.2.3,59.9714895539394,
SAT_stims-16529098615025146.csv,0.028999999999999998,1,0,0,0,left,0,2,2,2,0,8,8,8,229.63131369999996,None,230.63133850000008,None,left,1,1.2060467000001154,230.66463879999992,None,230.74799474000002,None,231.89800113999996,None,02,001,2022_Jun_17_1342,vSAT,2021.2.3,59.9714895539394,
SAT_stims-16529098615025146.csv,0.017,2,0,0,1,right,0,2,2,2,0,9,9,9,232.4146862,None,234.41474229999994,None,right,1,0.638733000000002,234.44805780000002,None,234.53137313999997,234.9647141999999,235.1146919399999,None,02,001,2022_Jun_17_1342,vSAT,2021.2.3,59.9714895539394,
SAT_stims-16529098615025146.csv,0.028999999999999998,1,0,0,1,right,0,2,2,2,0,10,10,10,235.63136499999996,None,236.63140969999995,None,right,1,0.5980862999999772,236.6647149999999,None,236.74807874000004,None,237.28142454000005,None,02,001,2022_Jun_17_1342,vSAT,2021.2.3,59.9714895539394,
SAT_stims-16529098615025146.csv,0.05,3,0,0,0,left,0,2,2,2,0,11,11,11,237.7981009,None,240.79812059999995,None,left,1,0.7507508999999573,240.84815379999986,None,240.93146884000004,241.36493900000005,241.6148157400001,None,02,001,2022_Jun_17_1342,vSAT,2021.2.3,59.9714895539394,
SAT_stims-16529098615025146.csv,0.05,3,0,0,1,right,0,2,2,2,0,12,12,12,242.13151070000004,None,245.1315543999999,None,right,1,0.3852928000001157,245.18155479999996,None,245.26488324000007,None,245.6148801800001,None,02,001,2022_Jun_17_1342,vSAT,2021.2.3,59.9714895539394,
SAT_stims-16529098615025146.csv,0.028999999999999998,3,0,0,1,right,0,2,2,2,0,13,13,13,246.13159199999996,None,249.13160100000005,None,right,1,0.43394869999997354,249.1649488999999,None,249.24828503999998,None,249.6315908800001,None,02,001,2022_Jun_17_1342,vSAT,2021.2.3,59.9714895539394,
SAT_stims-16529098615025146.csv,0.028999999999999998,2,0,0,0,left,0,2,2,2,0,14,14,14,250.14830860000006,None,252.14834810000002,None,left,1,0.7291823000000477,252.1816558999999,None,252.26498094000004,None,252.93166434000005,None,02,001,2022_Jun_17_1342,vSAT,2021.2.3,59.9714895539394,
SAT_stims-16529098615025146.csv,0.028999999999999998,2,0,0,1,right,0,2,2,2,0,15,15,15,253.44836859999987,None,255.44837039999993,None,right,1,0.46918080000000373,255.48170830000004,None,255.56511013999994,None,255.9983782800001,None,02,001,2022_Jun_17_1342,vSAT,2021.2.3,59.9714895539394,
SAT_stims-16529098615025146.csv,0.028999999999999998,1,0,0,1,right,0,2,2,2,0,16,16,16,256.51503219999995,None,257.5150767,None,right,1,0.4984501999999793,257.54837810000004,None,257.63172754,None,258.06508263999996,258.5650771999999,02,001,2022_Jun_17_1342,vSAT,2021.2.3,59.9714895539394,
SAT_stims-16529098615025146.csv,0.017,2,0,0,0,left,0,2,2,2,0,17,17,17,258.5817717,None,260.5817038,None,left,1,0.631791499999963,260.6150493,None,260.6983762400001,None,261.26499283999993,None,02,001,2022_Jun_17_1342,vSAT,2021.2.3,59.9714895539394,
SAT_stims-16529098615025146.csv,0.017,3,0,0,0,left,0,2,2,2,0,18,18,18,261.7816897,None,264.7817585999999,None,left,1,1.0396594000001187,264.8151250000001,None,264.8984398400001,None,265.8817704399999,None,02,001,2022_Jun_17_1342,vSAT,2021.2.3,59.9714895539394,
SAT_stims-16529098615025146.csv,0.05,1,0,0,1,right,0,2,2,2,0,19,19,19,266.39846349999993,None,267.3984713,None,right,1,0.6622362999999041,267.44853379999995,None,267.53189503999994,267.9651908999999,268.1318661399999,None,02,001,2022_Jun_17_1342,vSAT,2021.2.3,59.9714895539394,
SAT_stims-16529098615025146.csv,0.017,3,0,0,0,left,0,2,2,2,0,20,20,20,268.6485548999999,None,271.64862649999986,None,left,1,0.7007473999999547,271.68197499999997,None,271.76529394000005,None,272.3986359399999,None,02,001,2022_Jun_17_1342,vSAT,2021.2.3,59.9714895539394,
SAT_stims-16529098615025146.csv,0.017,3,0,0,1,right,0,2,2,2,0,21,21,21,272.9153148999999,None,275.91537859999994,None,left,0,0.4022041000000627,275.9487151000001,None,276.03202444000004,None,276.39869358,None,02,001,2022_Jun_17_1342,vSAT,2021.2.3,59.9714895539394,
SAT_stims-16529098615025146.csv,0.028999999999999998,2,0,0,0,left,0,2,2,2,0,22,22,22,276.9153782000001,None,278.91540910000003,None,left,1,0.618138700000145,278.94875009999987,None,279.0320698399999,None,279.58208543999996,None,02,001,2022_Jun_17_1342,vSAT,2021.2.3,59.9714895539394,
SAT_stims-16529098615025146.csv,0.05,3,0,0,1,right,0,2,2,2,0,23,23,23,280.09876140000006,None,283.0988172,None,right,1,0.4818933999999899,283.14880879999987,None,283.23214074000003,None,283.6654603799999,None,02,001,2022_Jun_17_1342,vSAT,2021.2.3,59.9714895539394,
SAT_stims-16529098615025146.csv,0.017,3,0,0,1,right,0,2,2,2,0,24,24,24,284.18218350000006,None,287.1822178,None,right,1,0.46312349999993785,287.2155594999999,None,287.2988780399999,None,287.71554568,None,02,001,2022_Jun_17_1342,vSAT,2021.2.3,59.9714895539394,
SAT_stims-16529098615025146.csv,0.028999999999999998,2,0,0,1,right,0,2,2,2,0,25,25,25,288.23222839999994,None,290.23226079999995,None,right,1,0.43723369999997885,290.2655866,None,290.34892814000006,None,290.74893388,None,02,001,2022_Jun_17_1342,vSAT,2021.2.3,59.9714895539394,
SAT_stims-16529098615025146.csv,0.05,2,0,0,0,left,0,2,2,2,0,26,26,26,291.2655835999999,None,293.2656445,None,left,1,0.8590292999999747,293.31564490000005,None,293.39900754,None,294.1989982400001,None,02,001,2022_Jun_17_1342,vSAT,2021.2.3,59.9714895539394,
SAT_stims-16529098615025146.csv,0.05,2,0,0,0,left,0,2,2,2,0,27,27,27,294.7156765,None,296.71569980000004,None,left,1,0.7371914999998808,296.76568799999995,None,296.84901143999997,None,297.5323656399999,None,02,001,2022_Jun_17_1342,vSAT,2021.2.3,59.9714895539394,
SAT_stims-16529098615025146.csv,0.017,2,0,0,1,right,0,2,2,2,0,28,28,28,298.04905310000004,None,300.04906200000005,None,right,1,0.4602247999998781,300.0824089,None,300.16574864,None,300.58238388000007,None,02,001,2022_Jun_17_1342,vSAT,2021.2.3,59.9714895539394,
SAT_stims-16529098615025146.csv,0.028999999999999998,2,0,0,0,left,0,2,2,2,0,29,29,29,301.09909689999995,None,303.09910390000005,None,left,1,0.6262667000000874,303.1324528,None,303.2157967399999,None,303.7824662399999,None,02,001,2022_Jun_17_1342,vSAT,2021.2.3,59.9714895539394,
SAT_stims-16529098615025146.csv,,,,,,,0,2,2,2,,,,,,,,,,,,,,,,,,02,001,2022_Jun_17_1342,vSAT,2021.2.3,59.9714895539394,
vSAT_stims-1652909861517474.csv,0.017,2,0.25,-0.25,0,left,0,3,3,3,0,0,0,0,314.7159816000001,None,316.71603600000003,None,left,1,0.7055012999999235,316.74935159999995,None,316.8326646399999,None,317.48267233999997,None,02,001,2022_Jun_17_1342,vSAT,2021.2.3,59.9714895539394,
vSAT_stims-1652909861517474.csv,0.05,1,-0.25,0.25,1,right,0,3,3,3,0,1,1,1,317.9993505,None,318.99937610000006,None,right,1,0.437388300000066,319.04937500000005,None,319.1327096400001,None,319.53269678000004,None,02,001,2022_Jun_17_1342,vSAT,2021.2.3,59.9714895539394,
vSAT_stims-1652909861517474.csv,0.05,2,0.0,0.0,1,right,0,3,3,3,0,2,2,2,320.04937330000007,None,322.0494335000001,None,right,1,0.4274327999999059,322.09941660000004,None,322.1827469400001,None,322.56609298,None,02,001,2022_Jun_17_1342,vSAT,2021.2.3,59.9714895539394,
vSAT_stims-1652909861517474.csv,0.028999999999999998,2,0.0,0.0,0,left,0,3,3,3,0,3,3,3,323.06609679999997,None,325.0661273999999,None,left,1,0.5792937999999594,325.0994722999999,None,325.18280813999996,None,325.6994760400001,None,02,001,2022_Jun_17_1342,vSAT,2021.2.3,59.9714895539394,
vSAT_stims-1652909861517474.csv,0.05,3,-0.25,0.25,0,left,0,3,3,3,0,4,4,4,326.2161561999999,None,329.2161925999999,None,left,1,0.4924943999999414,329.26620849999995,None,329.34953634000004,None,329.79953158,None,02,001,2022_Jun_17_1342,vSAT,2021.2.3,59.9714895539394,
vSAT_stims-1652909861517474.csv,0.028999999999999998,1,0.25,0.25,0,left,0,3,3,3,0,5,5,5,330.3162230999999,None,331.31625929999996,None,left,1,0.5852383000001282,331.34957959999997,None,331.43289323999994,None,331.96625234000004,None,02,001,2022_Jun_17_1342,vSAT,2021.2.3,59.9714895539394,
vSAT_stims-1652909861517474.csv,0.017,2,0.25,0.25,0,left,0,3,3,3,0,6,6,6,332.46634560000007,None,334.4663174,None,left,1,0.44318379999981516,334.49962800000003,None,334.5829469399999,None,334.9829627800001,None,02,001,2022_Jun_17_1342,vSAT,2021.2.3,59.9714895539394,
vSAT_stims-1652909861517474.csv,0.028999999999999998,1,-0.25,0.25,0,left,0,3,3,3,0,7,7,7,335.4996409999999,None,336.4996464000001,None,left,1,0.601829700000053,336.5329916999999,None,336.6163451400001,None,337.16631674,None,02,001,2022_Jun_17_1342,vSAT,2021.2.3,59.9714895539394,
vSAT_stims-1652909861517474.csv,0.028999999999999998,2,-0.25,-0.25,0,left,0,3,3,3,0,8,8,8,337.66635339999993,None,339.6663584999999,None,left,1,0.5231979000000138,339.6997044,None,339.78298884,None,340.2497203399999,None,02,001,2022_Jun_17_1342,vSAT,2021.2.3,59.9714895539394,
vSAT_stims-1652909861517474.csv,0.05,2,0.25,0.25,1,right,0,3,3,3,0,9,9,9,340.7663686000001,None,342.7664199999999,None,right,1,0.3983037000000422,342.8164148999999,None,342.89974614,None,343.2330786400001,343.74975470000004,02,001,2022_Jun_17_1342,vSAT,2021.2.3,59.9714895539394,
vSAT_stims-1652909861517474.csv,0.028999999999999998,3,0.0,0.0,1,right,0,3,3,3,0,10,10,10,343.7664371000001,None,346.7664689999999,None,right,1,0.5270915000000969,346.79980249999994,None,346.8831421400001,None,347.3498035400001,None,02,001,2022_Jun_17_1342,vSAT,2021.2.3,59.9714895539394,
vSAT_stims-1652909861517474.csv,0.05,2,0.25,-0.25,1,right,0,3,3,3,0,11,11,11,347.8664956,None,349.86653449999994,None,right,1,0.3382673999999497,349.9164969000001,None,349.9998484399999,None,350.29986778,None,02,001,2022_Jun_17_1342,vSAT,2021.2.3,59.9714895539394,
vSAT_stims-1652909861517474.csv,0.05,3,-0.25,0.25,1,right,0,3,3,3,0,12,12,12,350.81654649999996,None,353.8165773999999,None,right,1,0.516179799999918,353.8665630999999,None,353.9499091400001,None,354.41659394000004,None,02,001,2022_Jun_17_1342,vSAT,2021.2.3,59.9714895539394,
vSAT_stims-1652909861517474.csv,0.028999999999999998,3,-0.25,0.25,1,right,0,3,3,3,0,13,13,13,354.9167192,None,357.9166548999999,None,right,1,0.6249734000000444,357.94999559999997,None,358.03331964,None,358.5999841399999,None,02,001,2022_Jun_17_1342,vSAT,2021.2.3,59.9714895539394,
vSAT_stims-1652909861517474.csv,0.05,3,0.25,0.25,0,left,0,3,3,3,0,14,14,14,359.11666560000003,None,362.11671869999986,None,left,1,0.6960982999999032,362.1666969999999,None,362.2500505399999,None,362.88340634,None,02,001,2022_Jun_17_1342,vSAT,2021.2.3,59.9714895539394,
vSAT_stims-1652909861517474.csv,0.05,3,0.25,-0.25,0,left,0,3,3,3,0,15,15,15,363.4000761,None,366.40012290000004,None,left,1,0.6684715999999753,366.4501121999999,None,366.5334413399999,None,367.1501137399999,None,02,001,2022_Jun_17_1342,vSAT,2021.2.3,59.9714895539394,
vSAT_stims-1652909861517474.csv,0.05,3,-0.25,0.25,0,left,0,3,3,3,0,16,16,16,367.66680629999996,None,370.6668614,None,left,1,0.673855599999797,370.7168609999999,None,370.8001970399999,371.2335137,371.41685764000005,None,02,001,2022_Jun_17_1342,vSAT,2021.2.3,59.9714895539394,
vSAT_stims-1652909861517474.csv,0.017,3,0.25,0.25,0,left,0,3,3,3,0,17,17,17,371.9335051999999,None,374.9335315999999,None,left,1,0.8880573999999797,374.96688619999986,None,375.05021044000006,375.4838465,375.8835830399999,None,02,001,2022_Jun_17_1342,vSAT,2021.2.3,59.9714895539394,
vSAT_stims-1652909861517474.csv,0.05,2,-0.25,0.25,1,right,0,3,3,3,0,18,18,18,376.40023599999995,None,378.40033859999994,None,left,0,0.6364898000001631,378.4503187,None,378.53363004,None,379.11699794,None,02,001,2022_Jun_17_1342,vSAT,2021.2.3,59.9714895539394,
vSAT_stims-1652909861517474.csv,0.05,2,0.25,0.25,1,right,0,3,3,3,0,19,19,19,379.6336303999999,None,381.63364909999996,None,right,1,0.4750192999999854,381.6836653999999,None,381.7670109399999,None,382.2003696800001,None,02,001,2022_Jun_17_1342,vSAT,2021.2.3,59.9714895539394,
vSAT_stims-1652909861517474.csv,0.05,2,0.25,-0.25,0,left,0,3,3,3,0,20,20,20,382.71700629999987,None,384.71708409999997,None,left,1,0.7356746999998904,384.76702049999994,None,384.85039014,385.2837778999999,385.5337577399999,None,02,001,2022_Jun_17_1342,vSAT,2021.2.3,59.9714895539394,
vSAT_stims-1652909861517474.csv,0.017,3,0.0,0.0,0,left,0,3,3,3,0,21,21,21,386.0504106000001,None,389.05045889999997,None,left,1,0.4828885000001719,389.08377139999993,None,389.1671460400001,None,389.60047668000004,None,02,001,2022_Jun_17_1342,vSAT,2021.2.3,59.9714895539394,
vSAT_stims-1652909861517474.csv,0.017,1,0.0,0.0,1,right,0,3,3,3,0,22,22,22,390.1171603,None,391.11716239999987,None,right,1,0.4322652000000744,391.15047860000004,None,391.2338313399999,None,391.61718878,None,02,001,2022_Jun_17_1342,vSAT,2021.2.3,59.9714895539394,
vSAT_stims-1652909861517474.csv,0.05,1,0.25,0.25,1,right,0,3,3,3,0,23,23,23,392.1338685999999,None,393.1338622999999,None,right,1,0.3828575000000001,393.1838700999999,None,393.2671751399999,None,393.60057257999995,None,02,001,2022_Jun_17_1342,vSAT,2021.2.3,59.9714895539394,
vSAT_stims-1652909861517474.csv,0.05,3,0.0,0.0,1,right,0,3,3,3,0,24,24,24,394.1172302,None,397.117256,None,right,1,0.4315893000000415,397.1672739999999,None,397.2505933400001,None,397.63392998000006,None,02,001,2022_Jun_17_1342,vSAT,2021.2.3,59.9714895539394,
vSAT_stims-1652909861517474.csv,0.05,1,-0.25,0.25,0,left,0,3,3,3,0,25,25,25,398.15062349999994,None,399.15062809999995,None,left,1,0.542111499999919,399.20065320000003,None,399.28394104,None,399.76734003999997,None,02,001,2022_Jun_17_1342,vSAT,2021.2.3,59.9714895539394,
vSAT_stims-1652909861517474.csv,0.028999999999999998,2,-0.25,0.25,0,left,0,3,3,3,0,26,26,26,400.2839813999999,None,402.28403660000004,None,left,1,0.6254696999999396,402.31734159999996,None,402.4006666399999,None,402.96737003999993,None,02,001,2022_Jun_17_1342,vSAT,2021.2.3,59.9714895539394,
vSAT_stims-1652909861517474.csv,0.017,2,-0.25,0.25,1,right,0,3,3,3,0,27,27,27,403.48403099999996,None,405.48411699999997,None,right,1,0.43370549999985997,405.51739470000007,None,405.6007196399999,None,405.98402567999995,None,02,001,2022_Jun_17_1342,vSAT,2021.2.3,59.9714895539394,
vSAT_stims-1652909861517474.csv,0.05,2,0.25,0.25,1,right,0,3,3,3,0,28,28,28,406.50073840000005,None,408.50077669999996,None,right,1,0.4078692000000501,408.5508003,None,408.6340966399999,None,409.00077228,None,02,001,2022_Jun_17_1342,vSAT,2021.2.3,59.9714895539394,
vSAT_stims-1652909861517474.csv,0.028999999999999998,1,0.0,0.0,1,right,0,3,3,3,0,29,29,29,409.51747610000007,None,410.5174886,None,right,1,0.3759857000000011,410.5507757999999,None,410.6341198400001,None,410.96746348,None,02,001,2022_Jun_17_1342,vSAT,2021.2.3,59.9714895539394,
vSAT_stims-1652909861517474.csv,,,,,,,0,3,3,3,,,,,,,,,,,,,,,,,,02,001,2022_Jun_17_1342,vSAT,2021.2.3,59.9714895539394,
