task_order,stim_time,inter_stim_time,x_pos,y_pos,match,corr_key,main_loop.thisRepN,main_loop.thisTrialN,main_loop.thisN,main_loop.thisIndex,vSAT_loop.thisRepN,vSAT_loop.thisTrialN,vSAT_loop.thisN,vSAT_loop.thisIndex,inter_stim_text.started,inter_stim_text.stopped,vSAT_square.started,vSAT_square.stopped,stim_resp.keys,stim_resp.corr,stim_resp.started,stim_resp.stopped,response_sound.started,response_sound.stopped,feedback_sound.started,feedback_sound.stopped,stim_resp.rt,participant,session,date,expName,psychopyVersion,frameRate,
SAT_stims-16529098589598534.csv,0.05,1,0,0,0,left,0,0,0,0,0,0,0,0,53.67209660000026,None,54.672103100000186,None,None,0,54.72209860000021,None,54.805389600000126,None,56.75547970000025,None,,01,001,2022_Jun_15_1520,vSAT,2021.2.3,59.97357564258268,
SAT_stims-16529098589598534.csv,0.017,2,0,0,1,right,0,0,0,0,0,1,1,1,57.27214260000028,None,59.272148500000185,None,right,1,59.305488400000286,None,59.38882250000006,59.822204000000056,59.972167300000365,None,0.6436135999997532,01,001,2022_Jun_15_1520,vSAT,2021.2.3,59.97357564258268,
SAT_stims-16529098589598534.csv,0.05,2,0,0,0,left,0,0,0,0,0,2,2,2,60.48881540000002,None,62.48886940000011,None,left,1,62.53887500000019,None,62.62219660000028,None,63.32219470000018,None,0.7542570999999043,01,001,2022_Jun_15_1520,vSAT,2021.2.3,59.97357564258268,
SAT_stims-16529098589598534.csv,0.028999999999999998,1,0,0,0,left,0,0,0,0,0,3,3,3,63.83888820000038,None,64.83887430000004,None,left,1,64.87225400000034,None,64.95563810000021,None,65.58889620000036,None,0.6927602000000661,01,001,2022_Jun_15_1520,vSAT,2021.2.3,59.97357564258268,
SAT_stims-16529098589598534.csv,0.05,2,0,0,1,right,0,0,0,0,0,4,4,4,66.10557210000024,None,68.10561260000031,None,right,1,68.15560370000003,None,68.23894820000032,None,68.52225960000033,None,0.3214683999999579,01,001,2022_Jun_15_1520,vSAT,2021.2.3,59.97357564258268,
SAT_stims-16529098589598534.csv,0.017,1,0,0,1,right,0,0,0,0,0,5,5,5,69.03895840000041,None,70.03895740000007,None,left,0,70.07230419999996,None,70.15563830000019,None,70.60566480000034,None,0.5007649999997739,01,001,2022_Jun_15_1520,vSAT,2021.2.3,59.97357564258268,
SAT_stims-16529098589598534.csv,0.017,1,0,0,0,left,0,0,0,0,0,6,6,6,71.12232119999999,None,72.1223258,None,left,1,72.15565490000017,None,72.23901830000023,72.67238510000016,73.00563330000023,None,0.8335139999999228,01,001,2022_Jun_15_1520,vSAT,2021.2.3,59.97357564258268,
SAT_stims-16529098589598534.csv,0.017,2,0,0,0,left,0,0,0,0,0,7,7,7,73.52232580000009,None,75.52237820000028,None,left,1,75.55571850000024,None,75.63902710000002,76.0724008000002,76.15573870000026,None,0.5695851000000403,01,001,2022_Jun_15_1520,vSAT,2021.2.3,59.97357564258268,
SAT_stims-16529098589598534.csv,0.05,3,0,0,1,right,0,0,0,0,0,8,8,8,76.67237890000024,None,79.67241630000035,None,right,1,79.72241930000018,None,79.80573200000026,None,80.07242320000023,None,0.30655239999987316,01,001,2022_Jun_15_1520,vSAT,2021.2.3,59.97357564258268,
SAT_stims-16529098589598534.csv,0.05,2,0,0,1,right,0,0,0,0,0,9,9,9,80.58912290000035,None,82.58910349999996,None,right,1,82.63914290000002,None,82.7224567000003,None,83.08914850000019,None,0.41385689999970054,01,001,2022_Jun_15_1520,vSAT,2021.2.3,59.97357564258268,
SAT_stims-16529098589598534.csv,0.028999999999999998,1,0,0,1,right,0,0,0,0,0,10,10,10,83.60583150000002,None,84.60582169999998,None,right,1,84.63915960000031,None,84.72247790000029,None,85.00582590000022,None,0.33398639999995794,01,001,2022_Jun_15_1520,vSAT,2021.2.3,59.97357564258268,
SAT_stims-16529098589598534.csv,0.05,1,0,0,0,left,0,0,0,0,0,11,11,11,85.52250830000003,None,86.52252180000005,None,right,0,86.57253020000007,None,86.65584800000033,None,87.0058554000002,None,0.4006920000001628,01,001,2022_Jun_15_1520,vSAT,2021.2.3,59.97357564258268,
SAT_stims-16529098589598534.csv,0.017,1,0,0,1,right,0,0,0,0,0,12,12,12,87.52252410000028,None,88.52254900000025,None,right,1,88.5558618,None,88.6392049000001,None,89.05590500000017,None,0.46518879999985074,01,001,2022_Jun_15_1520,vSAT,2021.2.3,59.97357564258268,
SAT_stims-16529098589598534.csv,0.028999999999999998,2,0,0,1,right,0,0,0,0,0,13,13,13,89.5725794,None,91.57259139999996,None,right,1,91.60593430000017,None,91.68924720000041,None,92.00593000000026,None,0.35917680000011387,01,001,2022_Jun_15_1520,vSAT,2021.2.3,59.97357564258268,
SAT_stims-16529098589598534.csv,0.017,3,0,0,1,right,0,0,0,0,0,14,14,14,92.52258830000028,None,95.52262870000004,None,right,1,95.55598470000041,None,95.63930440000013,None,95.93931490000023,None,0.3450826000002962,01,001,2022_Jun_15_1520,vSAT,2021.2.3,59.97357564258268,
SAT_stims-16529098589598534.csv,0.05,3,0,0,0,left,0,0,0,0,0,15,15,15,96.45599830000037,None,99.45602959999997,None,left,1,99.50601320000033,None,99.5893688000001,None,99.9893532000001,None,0.44289759999992384,01,001,2022_Jun_15_1520,vSAT,2021.2.3,59.97357564258268,
SAT_stims-16529098589598534.csv,0.017,3,0,0,1,right,0,0,0,0,0,16,16,16,100.50604020000037,None,103.50608490000013,None,right,1,103.53939960000025,None,103.62273190000042,None,104.00606890000017,None,0.4257376000000477,01,001,2022_Jun_15_1520,vSAT,2021.2.3,59.97357564258268,
SAT_stims-16529098589598534.csv,0.017,3,0,0,0,left,0,0,0,0,0,17,17,17,104.52275680000002,None,107.522786,None,left,1,107.55612940000037,None,107.63946170000008,108.0728009000004,108.20611820000022,None,0.632824900000287,01,001,2022_Jun_15_1520,vSAT,2021.2.3,59.97357564258268,
SAT_stims-16529098589598534.csv,0.028999999999999998,3,0,0,1,right,0,0,0,0,0,18,18,18,108.7228167000003,None,111.7228498000004,None,right,1,111.75618359999999,None,111.83951780000007,None,112.1728377000004,None,0.369018099999721,01,001,2022_Jun_15_1520,vSAT,2021.2.3,59.97357564258268,
SAT_stims-16529098589598534.csv,0.017,2,0,0,1,right,0,0,0,0,0,19,19,19,112.68955170000027,None,114.68955640000013,None,left,0,114.72288150000031,None,114.80618700000014,None,115.20623250000017,None,0.4420620000000781,01,001,2022_Jun_15_1520,vSAT,2021.2.3,59.97357564258268,
SAT_stims-16529098589598534.csv,0.017,1,0,0,1,right,0,0,0,0,0,20,20,20,115.72290320000002,None,116.72292520000019,None,right,1,116.75626520000014,None,116.83956380000018,None,117.20623830000022,None,0.40873740000006364,01,001,2022_Jun_15_1520,vSAT,2021.2.3,59.97357564258268,
SAT_stims-16529098589598534.csv,0.05,3,0,0,0,left,0,0,0,0,0,21,21,21,117.72292779999998,None,120.7229712000003,None,right,0,120.77296520000027,None,120.85627120000026,None,121.2729545000002,None,0.45594560000017736,01,001,2022_Jun_15_1520,vSAT,2021.2.3,59.97357564258268,
SAT_stims-16529098589598534.csv,0.028999999999999998,3,0,0,1,right,0,0,0,0,0,22,22,22,121.78962530000035,None,124.78965749999998,None,right,1,124.82300890000033,None,124.90631100000019,None,125.2897009000003,None,0.4222082999999657,01,001,2022_Jun_15_1520,vSAT,2021.2.3,59.97357564258268,
SAT_stims-16529098589598534.csv,0.028999999999999998,3,0,0,0,left,0,0,0,0,0,23,23,23,125.80636870000035,None,128.80639790000032,None,left,1,128.83972800000038,None,128.92306000000008,None,129.40638830000034,None,0.5490098000000216,01,001,2022_Jun_15_1520,vSAT,2021.2.3,59.97357564258268,
SAT_stims-16529098589598534.csv,0.017,3,0,0,1,right,0,0,0,0,0,24,24,24,129.9230862000004,None,132.92312100000026,None,right,1,132.95645130000003,None,133.03979270000036,None,133.40642220000018,None,0.416457199999968,01,001,2022_Jun_15_1520,vSAT,2021.2.3,59.97357564258268,
SAT_stims-16529098589598534.csv,0.017,1,0,0,1,right,0,0,0,0,0,25,25,25,133.92315050000025,None,134.92315260000032,None,right,1,134.9564889000003,None,135.03982010000027,None,135.4231103000002,None,0.43232920000036756,01,001,2022_Jun_15_1520,vSAT,2021.2.3,59.97357564258268,
SAT_stims-16529098589598534.csv,0.028999999999999998,3,0,0,1,right,0,0,0,0,0,26,26,26,135.93983590000016,None,138.93987560000005,None,right,1,138.97317880000037,None,139.0565370000004,None,139.38989250000031,None,0.3677637999999206,01,001,2022_Jun_15_1520,vSAT,2021.2.3,59.97357564258268,
SAT_stims-16529098589598534.csv,0.05,3,0,0,0,left,0,0,0,0,0,27,27,27,139.9065542000003,None,142.9065802,None,right,0,142.9566093000003,None,143.03992440000002,None,143.47324900000012,143.9733051000003,0.49622210000006817,01,001,2022_Jun_15_1520,vSAT,2021.2.3,59.97357564258268,
SAT_stims-16529098589598534.csv,0.017,1,0,0,1,right,0,0,0,0,0,28,28,28,143.9899429000002,None,144.98996110000007,None,right,1,145.02328960000023,None,145.10661270000037,None,145.4399451000004,None,0.38164569999980813,01,001,2022_Jun_15_1520,vSAT,2021.2.3,59.97357564258268,
SAT_stims-16529098589598534.csv,0.028999999999999998,2,0,0,0,left,0,0,0,0,0,29,29,29,145.9566345000003,None,147.95665959999997,None,left,1,147.9899830000004,None,148.07332850000012,None,148.73999300000014,None,0.7275841000000582,01,001,2022_Jun_15_1520,vSAT,2021.2.3,59.97357564258268,
SAT_stims-16529098589598534.csv,,,,,,,0,0,0,0,,,,,,,,,,,,,,,,,,01,001,2022_Jun_15_1520,vSAT,2021.2.3,59.97357564258268,
vSAT_stims-16529098589906454.csv,0.05,3,0.25,0.25,1,right,0,1,1,1,0,0,0,0,157.6568057000004,None,160.6568185000001,None,right,1,160.70682950000037,None,160.79013550000036,None,161.22347430000036,None,0.47413090000009106,01,001,2022_Jun_15_1520,vSAT,2021.2.3,59.97357564258268,
vSAT_stims-16529098589906454.csv,0.017,1,0.25,0.25,0,left,0,1,1,1,0,1,1,1,161.7401675000001,None,162.74017380000032,None,left,1,162.7735232,None,162.85684840000022,None,163.32351890000018,None,0.5192918000002464,01,001,2022_Jun_15_1520,vSAT,2021.2.3,59.97357564258268,
vSAT_stims-16529098589906454.csv,0.017,2,0.0,0.0,0,left,0,1,1,1,0,2,2,2,163.8401847,None,165.8402540000002,None,left,1,165.87357190000012,None,165.9568879000003,None,166.50688400000035,None,0.6033020999998371,01,001,2022_Jun_15_1520,vSAT,2021.2.3,59.97357564258268,
vSAT_stims-16529098589906454.csv,0.017,1,0.0,0.0,0,left,0,1,1,1,0,3,3,3,167.02355480000006,None,168.02356910000026,None,left,1,168.05693800000017,None,168.1402468000001,None,168.6069094000004,None,0.5158950000000004,01,001,2022_Jun_15_1520,vSAT,2021.2.3,59.97357564258268,
vSAT_stims-16529098589906454.csv,0.028999999999999998,2,0.25,0.25,0,left,0,1,1,1,0,4,4,4,169.12358919999997,None,171.12362759999996,None,left,1,171.1569568,None,171.24028830000043,None,171.85698170000023,None,0.6798347999997532,01,001,2022_Jun_15_1520,vSAT,2021.2.3,59.97357564258268,
vSAT_stims-16529098589906454.csv,0.017,1,0.0,0.0,0,left,0,1,1,1,0,5,5,5,172.37364160000016,None,173.373646,None,left,1,173.4069787000003,None,173.49032030000035,None,173.95697540000037,None,0.509918899999775,01,001,2022_Jun_15_1520,vSAT,2021.2.3,59.97357564258268,
vSAT_stims-16529098589906454.csv,0.028999999999999998,2,0.25,0.25,1,right,0,1,1,1,0,6,6,6,174.47367359999998,None,176.47368470000038,None,right,1,176.5070326,None,176.59036220000007,None,176.99032190000025,None,0.44971099999975195,01,001,2022_Jun_15_1520,vSAT,2021.2.3,59.97357564258268,
vSAT_stims-16529098589906454.csv,0.028999999999999998,3,-0.25,0.25,1,right,0,1,1,1,0,7,7,7,177.50703870000007,None,180.50708340000028,None,left,0,180.54042620000018,None,180.6237328000002,None,180.92373400000042,None,0.33659810000017387,01,001,2022_Jun_15_1520,vSAT,2021.2.3,59.97357564258268,
vSAT_stims-16529098589906454.csv,0.05,1,0.0,0.0,0,left,0,1,1,1,0,8,8,8,181.44041140000036,None,182.4404574,None,left,1,182.4904308,None,182.5737825000001,None,183.3737583000002,None,0.8662896000000728,01,001,2022_Jun_15_1520,vSAT,2021.2.3,59.97357564258268,
vSAT_stims-16529098589906454.csv,0.028999999999999998,2,-0.25,-0.25,1,right,0,1,1,1,0,9,9,9,183.8904467000002,None,185.8904908000004,None,right,1,185.9238166,None,186.00715190000028,None,186.5404870000002,None,0.601012599999649,01,001,2022_Jun_15_1520,vSAT,2021.2.3,59.97357564258268,
vSAT_stims-16529098589906454.csv,0.017,1,-0.25,-0.25,1,right,0,1,1,1,0,10,10,10,187.05718539999998,None,188.0571888000004,None,right,1,188.09050790000038,None,188.17383840000002,None,188.55717100000038,None,0.4184351999997489,01,001,2022_Jun_15_1520,vSAT,2021.2.3,59.97357564258268,
vSAT_stims-16529098589906454.csv,0.017,1,-0.25,0.25,0,left,0,1,1,1,0,11,11,11,189.0738462000004,None,190.07386730000007,None,right,0,190.10720179999998,None,190.1905343000003,None,190.62387860000035,None,0.48147289999997156,01,001,2022_Jun_15_1520,vSAT,2021.2.3,59.97357564258268,
vSAT_stims-16529098589906454.csv,0.028999999999999998,1,-0.25,-0.25,1,right,0,1,1,1,0,12,12,12,191.12388330000022,None,192.1238959000002,None,right,1,192.1572259000004,None,192.24059550000038,None,192.8072416,None,0.6235047000000122,01,001,2022_Jun_15_1520,vSAT,2021.2.3,59.97357564258268,
vSAT_stims-16529098589906454.csv,0.05,3,0.25,0.25,1,right,0,1,1,1,0,13,13,13,193.3239179000002,None,196.32394410000006,None,right,1,196.37394140000015,None,196.45729210000036,None,196.75728760000038,None,0.3429246000000603,01,001,2022_Jun_15_1520,vSAT,2021.2.3,59.97357564258268,
vSAT_stims-16529098589906454.csv,0.017,1,-0.25,0.25,0,left,0,1,1,1,0,14,14,14,197.2739843000004,None,198.2739974000001,None,left,1,198.30730670000003,None,198.39064540000027,None,199.12403949999998,None,0.7935019999999895,01,001,2022_Jun_15_1520,vSAT,2021.2.3,59.97357564258268,
vSAT_stims-16529098589906454.csv,0.028999999999999998,1,0.25,0.25,1,right,0,1,1,1,0,15,15,15,199.6407178000004,None,200.6406879000001,None,right,1,200.6740331000001,None,200.75734220000004,None,201.1407352000001,None,0.4266757000000325,01,001,2022_Jun_15_1520,vSAT,2021.2.3,59.97357564258268,
vSAT_stims-16529098589906454.csv,0.017,1,-0.25,0.25,1,right,0,1,1,1,0,16,16,16,201.6573755000004,None,202.6573731000003,None,right,1,202.6907008000003,None,202.77403960000038,None,203.1240356000003,None,0.3940698000001248,01,001,2022_Jun_15_1520,vSAT,2021.2.3,59.97357564258268,
vSAT_stims-16529098589906454.csv,0.05,3,0.25,-0.25,1,right,0,1,1,1,0,17,17,17,203.6407052000004,None,206.64076220000015,None,right,1,206.69075910000038,None,206.77407330000005,None,207.15746130000025,None,0.42578290000028574,01,001,2022_Jun_15_1520,vSAT,2021.2.3,59.97357564258268,
vSAT_stims-16529098589906454.csv,0.017,1,0.0,0.0,0,left,0,1,1,1,0,18,18,18,207.67410540000037,None,208.67412650000006,None,left,1,208.7074475000004,None,208.79075710000006,None,209.47418830000015,None,0.745321899999908,01,001,2022_Jun_15_1520,vSAT,2021.2.3,59.97357564258268,
vSAT_stims-16529098589906454.csv,0.028999999999999998,3,0.25,-0.25,1,right,0,1,1,1,0,19,19,19,209.99080520000007,None,212.99082520000002,None,right,1,213.0241729000004,None,213.10753250000016,None,213.5075184000002,None,0.4446128999998109,01,001,2022_Jun_15_1520,vSAT,2021.2.3,59.97357564258268,
vSAT_stims-16529098589906454.csv,0.05,3,0.0,0.0,1,right,0,1,1,1,0,20,20,20,214.02420470000015,None,217.02423160000035,None,right,1,217.07422880000013,None,217.15757440000016,None,217.57424640000045,None,0.45833519999996497,01,001,2022_Jun_15_1520,vSAT,2021.2.3,59.97357564258268,
vSAT_stims-16529098589906454.csv,0.05,3,-0.25,0.25,0,left,0,1,1,1,0,21,21,21,218.09090860000015,None,221.0909545000004,None,left,1,221.14094730000033,None,221.22433440000032,None,221.84095220000017,None,0.6796936999999161,01,001,2022_Jun_15_1520,vSAT,2021.2.3,59.97357564258268,
vSAT_stims-16529098589906454.csv,0.017,2,0.25,0.25,0,left,0,1,1,1,0,22,22,22,222.35764080000035,None,224.35764270000027,None,left,1,224.39096860000018,None,224.4743257,None,225.32434030000013,None,0.9176625999998578,01,001,2022_Jun_15_1520,vSAT,2021.2.3,59.97357564258268,
vSAT_stims-16529098589906454.csv,0.028999999999999998,2,-0.25,0.25,1,right,0,1,1,1,0,23,23,23,225.84099890000016,None,227.84103810000033,None,right,1,227.8743784000003,None,227.9577022000003,None,228.40772360000028,None,0.4900743000002876,01,001,2022_Jun_15_1520,vSAT,2021.2.3,59.97357564258268,
vSAT_stims-16529098589906454.csv,0.05,2,0.25,-0.25,0,left,0,1,1,1,0,24,24,24,228.9244209000003,None,230.92441240000016,None,left,1,230.97441100000015,None,231.05773640000007,None,231.5577661000002,None,0.5582901999996466,01,001,2022_Jun_15_1520,vSAT,2021.2.3,59.97357564258268,
vSAT_stims-16529098589906454.csv,0.017,3,0.25,-0.25,0,left,0,1,1,1,0,25,25,25,232.07442410000021,None,235.07451200000014,None,left,1,235.1078048000004,None,235.19113110000035,None,235.70787260000043,None,0.5687832999997227,01,001,2022_Jun_15_1520,vSAT,2021.2.3,59.97357564258268,
vSAT_stims-16529098589906454.csv,0.017,2,-0.25,0.25,1,right,0,1,1,1,0,26,26,26,236.22448710000026,None,238.22450860000026,None,right,1,238.2578451000004,None,238.34116360000007,None,238.8411784,None,0.5548807000000124,01,001,2022_Jun_15_1520,vSAT,2021.2.3,59.97357564258268,
vSAT_stims-16529098589906454.csv,0.028999999999999998,3,-0.25,-0.25,0,left,0,1,1,1,0,27,27,27,239.3578690000004,None,242.35789270000032,None,left,1,242.3913107000003,None,242.47455800000034,None,243.39126570000008,None,0.9811725000004117,01,001,2022_Jun_15_1520,vSAT,2021.2.3,59.97357564258268,
vSAT_stims-16529098589906454.csv,0.017,3,-0.25,-0.25,0,left,0,1,1,1,0,28,28,28,243.9079227000002,None,246.9079509000003,None,left,1,246.9412871000004,None,247.0246188000001,None,247.6413031000002,None,0.6714175000001887,01,001,2022_Jun_15_1520,vSAT,2021.2.3,59.97357564258268,
vSAT_stims-16529098589906454.csv,0.028999999999999998,1,-0.25,0.25,0,left,0,1,1,1,0,29,29,29,248.15796890000001,None,249.1579845000001,None,left,1,249.19135000000006,None,249.2746516000002,None,249.75797730000022,None,0.5491243999999824,01,001,2022_Jun_15_1520,vSAT,2021.2.3,59.97357564258268,
vSAT_stims-16529098589906454.csv,,,,,,,0,1,1,1,,,,,,,,,,,,,,,,,,01,001,2022_Jun_15_1520,vSAT,2021.2.3,59.97357564258268,
vSAT_stims-1652909858975431.csv,0.028999999999999998,2,0.25,0.25,1,right,0,2,2,2,0,0,0,0,254.62471350000033,None,256.6247734000003,None,right,1,256.65808700000025,None,256.74142200000006,None,257.0914379000001,None,0.39428940000016155,01,001,2022_Jun_15_1520,vSAT,2021.2.3,59.97357564258268,
vSAT_stims-1652909858975431.csv,0.028999999999999998,1,-0.25,0.25,0,left,0,2,2,2,0,1,1,1,257.6081084000002,None,258.6081299000002,None,left,1,258.6414299000003,None,258.72479380000004,None,259.19141260000015,None,0.50704450000012,01,001,2022_Jun_15_1520,vSAT,2021.2.3,59.97357564258268,
vSAT_stims-1652909858975431.csv,0.028999999999999998,3,-0.25,0.25,1,right,0,2,2,2,0,2,2,2,259.7081438,None,262.70814740000014,None,right,1,262.7414769000002,None,262.8248189000001,None,263.2082055000001,None,0.42303510000010647,01,001,2022_Jun_15_1520,vSAT,2021.2.3,59.97357564258268,
vSAT_stims-1652909858975431.csv,0.028999999999999998,3,-0.25,0.25,0,left,0,2,2,2,0,3,3,3,263.72485410000036,None,266.72490100000005,None,left,1,266.75821700000006,None,266.8415358000002,None,267.32487660000015,None,0.5504812000003767,01,001,2022_Jun_15_1520,vSAT,2021.2.3,59.97357564258268,
vSAT_stims-1652909858975431.csv,0.028999999999999998,1,0.25,0.25,1,right,0,2,2,2,0,4,4,4,267.8415778000003,None,268.8415686000003,None,right,1,268.8749133000001,None,268.9582311000004,269.4082905,269.42495310000004,None,0.5297501999998531,01,001,2022_Jun_15_1520,vSAT,2021.2.3,59.97357564258268,
vSAT_stims-1652909858975431.csv,0.028999999999999998,3,0.25,-0.25,0,left,0,2,2,2,0,5,5,5,269.94160260000035,None,272.9416812000004,None,left,1,272.97499000000016,None,273.05826700000034,273.50832200000013,273.65832100000034,None,0.6534771999999975,01,001,2022_Jun_15_1520,vSAT,2021.2.3,59.97357564258268,
vSAT_stims-1652909858975431.csv,0.028999999999999998,1,0.0,0.0,1,right,0,2,2,2,0,6,6,6,274.1749554000003,None,275.1749827000003,None,right,1,275.20832010000004,None,275.2916505000003,None,275.7583447000002,None,0.5161987000001318,01,001,2022_Jun_15_1520,vSAT,2021.2.3,59.97357564258268,
vSAT_stims-1652909858975431.csv,0.017,3,0.25,0.25,0,left,0,2,2,2,0,7,7,7,276.27502790000017,None,279.2750411000002,None,right,0,279.3083929000004,None,279.3917150000002,None,280.0250688000001,None,0.688259399999879,01,001,2022_Jun_15_1520,vSAT,2021.2.3,59.97357564258268,
vSAT_stims-1652909858975431.csv,0.017,2,-0.25,0.25,0,left,0,2,2,2,0,8,8,8,280.5417421000002,None,282.5417714,None,left,1,282.5751045000002,None,282.65840260000004,283.1084085000002,283.3250857000003,None,0.7333948000000419,01,001,2022_Jun_15_1520,vSAT,2021.2.3,59.97357564258268,
vSAT_stims-1652909858975431.csv,0.017,1,-0.25,0.25,0,left,0,2,2,2,0,9,9,9,283.8417539000002,None,284.84179710000035,None,right,0,284.87510710000015,None,284.9584473,285.39177370000016,285.62515470000017,None,0.7215349000002789,01,001,2022_Jun_15_1520,vSAT,2021.2.3,59.97357564258268,
vSAT_stims-1652909858975431.csv,0.028999999999999998,3,-0.25,0.25,0,left,0,2,2,2,0,10,10,10,286.1418504000003,None,289.14184950000026,None,left,1,289.1751701000003,None,289.25852490000034,289.69179140000006,289.8751868000004,None,0.6773479999997107,01,001,2022_Jun_15_1520,vSAT,2021.2.3,59.97357564258268,
vSAT_stims-1652909858975431.csv,0.028999999999999998,1,-0.25,-0.25,1,right,0,2,2,2,0,11,11,11,290.39187310000034,None,291.391889,None,left,0,291.4252308,None,291.50853050000023,None,291.8918549,None,0.4273705999999038,01,001,2022_Jun_15_1520,vSAT,2021.2.3,59.97357564258268,
vSAT_stims-1652909858975431.csv,0.017,2,0.25,0.25,1,right,0,2,2,2,0,12,12,12,292.4085341,None,294.4085863,None,right,1,294.4419062000002,None,294.52525130000004,None,294.8918942,None,0.41834479999988616,01,001,2022_Jun_15_1520,vSAT,2021.2.3,59.97357564258268,
vSAT_stims-1652909858975431.csv,0.028999999999999998,2,0.25,0.25,1,right,0,2,2,2,0,13,13,13,295.4086053000001,None,297.4085937,None,right,1,297.44193510000014,None,297.5252948000002,None,297.90863790000003,None,0.42661610000004657,01,001,2022_Jun_15_1520,vSAT,2021.2.3,59.97357564258268,
vSAT_stims-1652909858975431.csv,0.017,3,-0.25,-0.25,0,left,0,2,2,2,0,14,14,14,298.42534220000016,None,301.42529360000026,None,left,1,301.45862920000036,None,301.5419791000004,None,302.1753335000003,None,0.6979436999999962,01,001,2022_Jun_15_1520,vSAT,2021.2.3,59.97357564258268,
vSAT_stims-1652909858975431.csv,0.028999999999999998,3,-0.25,-0.25,1,right,0,2,2,2,0,15,15,15,302.6919985000004,None,305.69202220000034,None,left,0,305.7253700000001,None,305.8086919000002,None,306.17537500000026,None,0.41498279999996157,01,001,2022_Jun_15_1520,vSAT,2021.2.3,59.97357564258268,
vSAT_stims-1652909858975431.csv,0.028999999999999998,1,-0.25,0.25,0,left,0,2,2,2,0,16,16,16,306.6920249,None,307.6920620000001,None,left,1,307.72539800000004,None,307.8087274000004,308.2420420000003,308.4587531000002,None,0.7030500000000757,01,001,2022_Jun_15_1520,vSAT,2021.2.3,59.97357564258268,
vSAT_stims-1652909858975431.csv,0.017,3,0.0,0.0,0,left,0,2,2,2,0,17,17,17,308.9754187000003,None,311.97546220000004,None,left,1,312.0087625000001,None,312.0921048,None,312.9087903000004,None,0.8837432000000263,01,001,2022_Jun_15_1520,vSAT,2021.2.3,59.97357564258268,
vSAT_stims-1652909858975431.csv,0.017,3,-0.25,-0.25,0,left,0,2,2,2,0,18,18,18,313.42549370000006,None,316.4255214,None,left,1,316.45887089999997,None,316.5421672000002,None,317.2921382000004,None,0.8172886000002109,01,001,2022_Jun_15_1520,vSAT,2021.2.3,59.97357564258268,
vSAT_stims-1652909858975431.csv,0.05,2,0.25,0.25,0,left,0,2,2,2,0,19,19,19,317.8089207000003,None,319.80890620000037,None,left,1,319.8588679000004,None,319.94225140000026,None,320.89222470000004,None,1.0176556999999775,01,001,2022_Jun_15_1520,vSAT,2021.2.3,59.97357564258268,
vSAT_stims-1652909858975431.csv,0.028999999999999998,2,-0.25,0.25,0,left,0,2,2,2,0,20,20,20,321.40893440000036,None,323.4089304000004,None,left,1,323.4422920000002,None,323.5256164000002,None,324.1256066000001,None,0.6660251000002972,01,001,2022_Jun_15_1520,vSAT,2021.2.3,59.97357564258268,
vSAT_stims-1652909858975431.csv,0.028999999999999998,3,0.0,0.0,1,right,0,2,2,2,0,21,21,21,324.6423,None,327.64233730000024,None,right,1,327.6756892000003,None,327.7589862,328.19232690000035,328.2590392000002,None,0.5604612000001907,01,001,2022_Jun_15_1520,vSAT,2021.2.3,59.97357564258268,
vSAT_stims-1652909858975431.csv,0.05,3,0.25,-0.25,1,right,0,2,2,2,0,22,22,22,328.7756811000004,None,331.77567990000034,None,right,1,331.82569690000037,None,331.9090351,None,332.3423914,332.8423455000002,0.49078289999988556,01,001,2022_Jun_15_1520,vSAT,2021.2.3,59.97357564258268,
vSAT_stims-1652909858975431.csv,0.05,2,0.0,0.0,0,left,0,2,2,2,0,23,23,23,332.8590414,None,334.8590693000001,None,left,1,334.9090666000002,None,334.99241740000025,None,335.6091402000002,None,0.6712534000002961,01,001,2022_Jun_15_1520,vSAT,2021.2.3,59.97357564258268,
vSAT_stims-1652909858975431.csv,0.017,3,0.0,0.0,0,left,0,2,2,2,0,24,24,24,336.12575700000025,None,339.1257988000002,None,left,1,339.159126,None,339.2424552000002,None,339.72578490000024,None,0.5493695000000116,01,001,2022_Jun_15_1520,vSAT,2021.2.3,59.97357564258268,
vSAT_stims-1652909858975431.csv,0.017,2,-0.25,-0.25,0,left,0,2,2,2,0,25,25,25,340.2424941000004,None,342.24250900000015,None,left,1,342.2758108000003,None,342.3591738,342.7925289,343.04250820000016,None,0.7446374000001015,01,001,2022_Jun_15_1520,vSAT,2021.2.3,59.97357564258268,
vSAT_stims-1652909858975431.csv,0.05,1,0.25,0.25,0,left,0,2,2,2,0,26,26,26,343.5591724000001,None,344.5591800000002,None,left,1,344.6091921000002,None,344.6925868000003,None,345.2592459000002,None,0.6191125999998803,01,001,2022_Jun_15_1520,vSAT,2021.2.3,59.97357564258268,
vSAT_stims-1652909858975431.csv,0.05,2,0.25,-0.25,0,left,0,2,2,2,0,27,27,27,345.7758632,None,347.77590069999997,None,left,1,347.8258756,None,347.90923840000005,348.3425166000002,348.3925929000002,None,0.5385882000000493,01,001,2022_Jun_15_1520,vSAT,2021.2.3,59.97357564258268,
vSAT_stims-1652909858975431.csv,0.05,3,0.0,0.0,0,left,0,2,2,2,0,28,28,28,348.9092333000003,None,351.9092764000002,None,left,1,351.9592872000003,None,352.0426263000004,None,352.49262940000017,None,0.5008601000004091,01,001,2022_Jun_15_1520,vSAT,2021.2.3,59.97357564258268,
vSAT_stims-1652909858975431.csv,0.017,3,0.0,0.0,1,right,0,2,2,2,0,29,29,29,353.00930770000014,None,356.0093383000003,None,left,0,356.04267000000027,None,356.1260091000004,None,356.5260094,None,0.44968489999973826,01,001,2022_Jun_15_1520,vSAT,2021.2.3,59.97357564258268,
vSAT_stims-1652909858975431.csv,,,,,,,0,2,2,2,,,,,,,,,,,,,,,,,,01,001,2022_Jun_15_1520,vSAT,2021.2.3,59.97357564258268,
SAT_stims-16529098589468498.csv,0.028999999999999998,3,0,0,0,left,0,3,3,3,0,0,0,0,360.44270210000013,None,363.44279810000035,None,left,1,363.47609720000037,None,363.5594252000001,363.992741,364.0427765000004,None,0.5361619000000246,01,001,2022_Jun_15_1520,vSAT,2021.2.3,59.97357564258268,
SAT_stims-16529098589468498.csv,0.017,1,0,0,0,left,0,3,3,3,0,1,1,1,364.5594449,None,365.5594603000004,None,left,1,365.5928178000004,None,365.6761241000004,None,366.1428235000003,None,0.5315264999999272,01,001,2022_Jun_15_1520,vSAT,2021.2.3,59.97357564258268,
SAT_stims-16529098589468498.csv,0.028999999999999998,3,0,0,0,left,0,3,3,3,0,2,2,2,366.6594682,None,369.65950450000037,None,left,1,369.6928471000001,None,369.7761524000002,None,370.3262093000003,None,0.607408200000009,01,001,2022_Jun_15_1520,vSAT,2021.2.3,59.97357564258268,
SAT_stims-16529098589468498.csv,0.05,1,0,0,1,right,0,3,3,3,0,3,3,3,370.84285100000034,None,371.8428683000002,None,right,1,371.8928728000001,None,371.97620270000016,None,372.44289720000006,None,0.51939880000009,01,001,2022_Jun_15_1520,vSAT,2021.2.3,59.97357564258268,
SAT_stims-16529098589468498.csv,0.017,2,0,0,1,right,0,3,3,3,0,4,4,4,372.95958280000013,None,374.9595706,None,right,1,374.99291330000005,None,375.07623790000025,None,375.52625460000036,None,0.4914961999998013,01,001,2022_Jun_15_1520,vSAT,2021.2.3,59.97357564258268,
SAT_stims-16529098589468498.csv,0.017,3,0,0,1,right,0,3,3,3,0,5,5,5,376.0429293000002,None,379.0430007,None,right,1,379.0762947000003,None,379.1596225000003,None,379.5263120000004,None,0.4081258999999591,01,001,2022_Jun_15_1520,vSAT,2021.2.3,59.97357564258268,
SAT_stims-16529098589468498.csv,0.028999999999999998,1,0,0,0,left,0,3,3,3,0,6,6,6,380.04296380000005,None,381.0429919000003,None,right,0,381.0763272000004,None,381.1595996000001,None,381.6596596000004,None,0.5518913000000794,01,001,2022_Jun_15_1520,vSAT,2021.2.3,59.97357564258268,
SAT_stims-16529098589468498.csv,0.05,2,0,0,0,left,0,3,3,3,0,7,7,7,382.1763337000002,None,384.1763592000002,None,left,1,384.22636200000034,None,384.30968470000016,None,384.8430536000001,None,0.5857679000000644,01,001,2022_Jun_15_1520,vSAT,2021.2.3,59.97357564258268,
SAT_stims-16529098589468498.csv,0.017,1,0,0,1,right,0,3,3,3,0,8,8,8,385.35972230000016,None,386.35974680000027,None,right,1,386.3930513,None,386.4763995000003,None,386.8763941000002,None,0.43506870000010167,01,001,2022_Jun_15_1520,vSAT,2021.2.3,59.97357564258268,
SAT_stims-16529098589468498.csv,0.028999999999999998,3,0,0,0,left,0,3,3,3,0,9,9,9,387.3930674000003,None,390.3931094000004,None,left,1,390.42644010000004,None,390.50977120000016,None,390.9264422000001,None,0.4658284000001913,01,001,2022_Jun_15_1520,vSAT,2021.2.3,59.97357564258268,
SAT_stims-16529098589468498.csv,0.028999999999999998,3,0,0,0,left,0,3,3,3,0,10,10,10,391.44311510000034,None,394.4431446000003,None,left,1,394.47648370000024,None,394.5597914,None,394.97650440000007,None,0.46386949999987337,01,001,2022_Jun_15_1520,vSAT,2021.2.3,59.97357564258268,
SAT_stims-16529098589468498.csv,0.05,3,0,0,1,right,0,3,3,3,0,11,11,11,395.4931458000001,None,398.49317640000027,None,right,1,398.5431775000002,None,398.62650520000034,None,399.02654840000014,None,0.44494929999973465,01,001,2022_Jun_15_1520,vSAT,2021.2.3,59.97357564258268,
SAT_stims-16529098589468498.csv,0.05,1,0,0,1,right,0,3,3,3,0,12,12,12,399.5432231,None,400.5432947000004,None,right,1,400.5932412000002,None,400.67656850000003,None,401.05990980000024,None,0.42709489999970174,01,001,2022_Jun_15_1520,vSAT,2021.2.3,59.97357564258268,
SAT_stims-16529098589468498.csv,0.028999999999999998,3,0,0,1,right,0,3,3,3,0,13,13,13,401.57657960000006,None,404.5765894000001,None,right,1,404.6099412000003,None,404.69329110000035,None,405.1933018000004,None,0.5540576999997029,01,001,2022_Jun_15_1520,vSAT,2021.2.3,59.97357564258268,
SAT_stims-16529098589468498.csv,0.028999999999999998,1,0,0,1,right,0,3,3,3,0,14,14,14,405.7099551000001,None,406.70997220000027,None,right,1,406.7432938000002,None,406.82661940000025,None,407.1599901000004,None,0.37280310000005557,01,001,2022_Jun_15_1520,vSAT,2021.2.3,59.97357564258268,
SAT_stims-16529098589468498.csv,0.028999999999999998,2,0,0,0,left,0,3,3,3,0,15,15,15,407.6766971000002,None,409.67671480000035,None,right,0,409.7100389000002,None,409.7933737000003,None,410.29333240000005,None,0.558209700000134,01,001,2022_Jun_15_1520,vSAT,2021.2.3,59.97357564258268,
SAT_stims-16529098589468498.csv,0.028999999999999998,2,0,0,1,right,0,3,3,3,0,16,16,16,410.8099914000004,None,412.8099843,None,right,1,412.8434195,None,412.92674780000016,None,413.4100615000002,None,0.5447537999998531,01,001,2022_Jun_15_1520,vSAT,2021.2.3,59.97357564258268,
SAT_stims-16529098589468498.csv,0.05,1,0,0,1,right,0,3,3,3,0,17,17,17,413.92666959999997,None,414.9267083,None,right,1,414.97671260000016,None,415.06003980000014,None,415.44338700000026,None,0.42717609999999695,01,001,2022_Jun_15_1520,vSAT,2021.2.3,59.97357564258268,
SAT_stims-16529098589468498.csv,0.05,1,0,0,1,right,0,3,3,3,0,18,18,18,415.9600091000002,None,416.96002880000015,None,right,1,417.010135,None,417.0933586000001,None,417.4601474000001,None,0.410177400000066,01,001,2022_Jun_15_1520,vSAT,2021.2.3,59.97357564258268,
SAT_stims-16529098589468498.csv,0.017,3,0,0,1,right,0,3,3,3,0,19,19,19,417.9767985000003,None,420.9768078000002,None,right,1,421.0101443000003,None,421.09346410000035,None,421.4934638000004,None,0.4421001000000615,01,001,2022_Jun_15_1520,vSAT,2021.2.3,59.97357564258268,
SAT_stims-16529098589468498.csv,0.028999999999999998,1,0,0,0,left,0,3,3,3,0,20,20,20,422.0101370000002,None,423.01014910000004,None,left,1,423.04346090000035,None,423.1267899000004,None,423.7434707000002,None,0.680675500000234,01,001,2022_Jun_15_1520,vSAT,2021.2.3,59.97357564258268,
SAT_stims-16529098589468498.csv,0.028999999999999998,2,0,0,0,left,0,3,3,3,0,21,21,21,424.2435313000001,None,426.24349740000025,None,left,1,426.27686730000005,None,426.3601603000002,None,427.09350970000014,None,0.7913684999998623,01,001,2022_Jun_15_1520,vSAT,2021.2.3,59.97357564258268,
SAT_stims-16529098589468498.csv,0.017,3,0,0,1,right,0,3,3,3,0,22,22,22,427.593605,None,430.5936092000002,None,right,1,430.62694950000014,None,430.71027760000015,None,431.11031550000007,None,0.4411522000000332,01,001,2022_Jun_15_1520,vSAT,2021.2.3,59.97357564258268,
SAT_stims-16529098589468498.csv,0.05,3,0,0,0,left,0,3,3,3,0,23,23,23,431.62696430000005,None,434.62698450000016,None,left,1,434.6770136,None,434.7603154000003,None,435.2436267000003,None,0.5514108000002125,01,001,2022_Jun_15_1520,vSAT,2021.2.3,59.97357564258268,
SAT_stims-16529098589468498.csv,0.028999999999999998,1,0,0,0,left,0,3,3,3,0,24,24,24,435.7603573000001,None,436.76029040000003,None,left,1,436.7936311000003,None,436.8769413,None,437.66034030000037,None,0.8504114999996091,01,001,2022_Jun_15_1520,vSAT,2021.2.3,59.97357564258268,
SAT_stims-16529098589468498.csv,0.05,3,0,0,0,left,0,3,3,3,0,25,25,25,438.1769876000003,None,441.1770309000003,None,left,1,441.22703090000005,None,441.31032890000006,None,441.96036890000005,None,0.7048456000002261,01,001,2022_Jun_15_1520,vSAT,2021.2.3,59.97357564258268,
SAT_stims-16529098589468498.csv,0.017,2,0,0,0,left,0,3,3,3,0,26,26,26,442.4770617000004,None,444.47705350000024,None,left,1,444.51045620000014,None,444.59376390000034,None,445.0937525000004,None,0.557539800000086,01,001,2022_Jun_15_1520,vSAT,2021.2.3,59.97357564258268,
SAT_stims-16529098589468498.csv,0.05,1,0,0,0,left,0,3,3,3,0,27,27,27,445.61039580000033,None,446.6104300000002,None,left,1,446.66047770000023,None,446.7437584000004,None,447.32709620000014,None,0.6474204999999529,01,001,2022_Jun_15_1520,vSAT,2021.2.3,59.97357564258268,
SAT_stims-16529098589468498.csv,0.05,1,0,0,1,right,0,3,3,3,0,28,28,28,447.8437838,None,448.84382970000024,None,right,1,448.8938357000002,None,448.97714280000037,None,449.42715780000026,None,0.4942949999999655,01,001,2022_Jun_15_1520,vSAT,2021.2.3,59.97357564258268,
SAT_stims-16529098589468498.csv,0.017,1,0,0,1,right,0,3,3,3,0,29,29,29,449.94384860000036,None,450.9438452000004,None,right,1,450.97719410000036,None,451.0605099000004,None,451.54385390000016,None,0.5389094000001933,01,001,2022_Jun_15_1520,vSAT,2021.2.3,59.97357564258268,
SAT_stims-16529098589468498.csv,,,,,,,0,3,3,3,,,,,,,,,,,,,,,,,,01,001,2022_Jun_15_1520,vSAT,2021.2.3,59.97357564258268,
