task_order,num_stim,match,corr_key,match_num,n_back_loop.thisRepN,n_back_loop.thisTrialN,n_back_loop.thisN,n_back_loop.thisIndex,stim_loop.thisRepN,stim_loop.thisTrialN,stim_loop.thisN,stim_loop.thisIndex,stim_text.started,stim_text.stopped,stim_resp.keys,stim_resp.corr,stim_resp.started,stim_resp.stopped,stim_resp.rt,participant,session,date,expName,psychopyVersion,frameRate,
TB-16571317872280922.csv,0,0,left,,0,0,0,0,0,0,0,0,22.305694900000162,22.805706700000883,None,0,22.305694900000162,None,,03,001,2022_Jul_06_1558,n_back,2021.2.3,60.017345012903746,
TB-16571317872280922.csv,9,0,left,,0,0,0,0,0,1,1,1,25.805768300000636,26.305766100000255,None,0,25.805768300000636,None,,03,001,2022_Jul_06_1558,n_back,2021.2.3,60.017345012903746,
TB-16571317872280922.csv,3,0,left,,0,0,0,0,0,2,2,2,29.305798800000048,29.805826300000263,left,1,29.305798800000048,None,0.8132645000005141,03,001,2022_Jul_06_1558,n_back,2021.2.3,60.017345012903746,
TB-16571317872280922.csv,1,0,left,,0,0,0,0,0,3,3,3,32.80587270000069,33.30587120000018,left,1,32.80587270000069,None,0.7051210999998148,03,001,2022_Jul_06_1558,n_back,2021.2.3,60.017345012903746,
TB-16571317872280922.csv,3,1,right,,0,0,0,0,0,4,4,4,36.305916200000866,36.805935900000804,right,1,36.305916200000866,None,0.9814022000000477,03,001,2022_Jul_06_1558,n_back,2021.2.3,60.017345012903746,
TB-16571317872280922.csv,9,0,left,,0,0,0,0,0,5,5,5,39.80596350000087,40.3059387000003,left,1,39.80596350000087,None,0.6172410999997737,03,001,2022_Jul_06_1558,n_back,2021.2.3,60.017345012903746,
TB-16571317872280922.csv,6,0,left,,0,0,0,0,0,6,6,6,43.306038500000795,43.80601220000062,left,1,43.306038500000795,None,0.6691034000004947,03,001,2022_Jul_06_1558,n_back,2021.2.3,60.017345012903746,
TB-16571317872280922.csv,9,1,right,,0,0,0,0,0,7,7,7,46.80608210000082,47.306087600000865,right,1,46.80608210000082,None,0.6408594999993511,03,001,2022_Jul_06_1558,n_back,2021.2.3,60.017345012903746,
TB-16571317872280922.csv,9,0,left,,0,0,0,0,0,8,8,8,50.306135100000574,50.806163400000514,left,1,50.306135100000574,None,0.9010048000000097,03,001,2022_Jul_06_1558,n_back,2021.2.3,60.017345012903746,
TB-16571317872280922.csv,9,1,right,,0,0,0,0,0,9,9,9,53.80619370000022,54.306193800000074,right,1,53.80619370000022,None,0.3449148999998215,03,001,2022_Jul_06_1558,n_back,2021.2.3,60.017345012903746,
TB-16571317872280922.csv,3,0,left,,0,0,0,0,0,10,10,10,57.30624870000065,57.80626250000023,left,1,57.30624870000065,None,0.38087240000004385,03,001,2022_Jul_06_1558,n_back,2021.2.3,60.017345012903746,
TB-16571317872280922.csv,9,1,right,,0,0,0,0,0,11,11,11,60.806292700000085,61.30630430000019,right,1,60.806292700000085,None,0.3849743999999191,03,001,2022_Jul_06_1558,n_back,2021.2.3,60.017345012903746,
TB-16571317872280922.csv,3,1,right,,0,0,0,0,0,12,12,12,64.30634640000062,64.8063716000006,right,1,64.30634640000062,None,0.5007433999999193,03,001,2022_Jul_06_1558,n_back,2021.2.3,60.017345012903746,
TB-16571317872280922.csv,5,0,left,,0,0,0,0,0,13,13,13,67.80641110000033,68.3064103000006,left,1,67.80641110000033,None,0.44062750000011874,03,001,2022_Jul_06_1558,n_back,2021.2.3,60.017345012903746,
TB-16571317872280922.csv,0,0,left,,0,0,0,0,0,14,14,14,71.30643790000067,71.80644530000063,left,1,71.30643790000067,None,0.5248344999999972,03,001,2022_Jul_06_1558,n_back,2021.2.3,60.017345012903746,
TB-16571317872280922.csv,3,0,left,,0,0,0,0,0,15,15,15,74.80651670000043,75.30648990000009,left,1,74.80651670000043,None,0.5125318999998854,03,001,2022_Jul_06_1558,n_back,2021.2.3,60.017345012903746,
TB-16571317872280922.csv,6,0,left,,0,0,0,0,0,16,16,16,78.3065744000005,78.80658090000088,left,1,78.3065744000005,None,0.46842409999953816,03,001,2022_Jul_06_1558,n_back,2021.2.3,60.017345012903746,
TB-16571317872280922.csv,3,1,right,,0,0,0,0,0,17,17,17,81.80664790000083,82.30663330000061,right,1,81.80664790000083,None,0.5205728999999337,03,001,2022_Jul_06_1558,n_back,2021.2.3,60.017345012903746,
TB-16571317872280922.csv,6,1,right,,0,0,0,0,0,18,18,18,85.30667420000009,85.8066789000004,None,0,85.30667420000009,None,,03,001,2022_Jul_06_1558,n_back,2021.2.3,60.017345012903746,
TB-16571317872280922.csv,3,1,right,,0,0,0,0,0,19,19,19,88.80673940000088,89.30674850000014,right,1,88.80673940000088,None,0.688546000000315,03,001,2022_Jul_06_1558,n_back,2021.2.3,60.017345012903746,
TB-16571317872280922.csv,,,,,0,0,0,0,,,,,,,,,,,,03,001,2022_Jul_06_1558,n_back,2021.2.3,60.017345012903746,
ZB-match_1-16571317862935221.csv,0,0,left,1,0,1,1,1,0,0,0,0,97.7735545000005,98.2735487000009,left,1,97.7735545000005,None,0.5535764000005656,03,001,2022_Jul_06_1558,n_back,2021.2.3,60.017345012903746,
ZB-match_1-16571317862935221.csv,6,0,left,1,0,1,1,1,0,1,1,1,101.27357500000016,101.77360960000078,left,1,101.27357500000016,101.27357500000016,0.3974122999998144,03,001,2022_Jul_06_1558,n_back,2021.2.3,60.017345012903746,
ZB-match_1-16571317862935221.csv,4,0,left,1,0,1,1,1,0,2,2,2,104.77365280000049,105.2736646000003,left,1,104.77365280000049,104.77365280000049,0.4014274999999543,03,001,2022_Jul_06_1558,n_back,2021.2.3,60.017345012903746,
ZB-match_1-16571317862935221.csv,6,0,left,1,0,1,1,1,0,3,3,3,108.27370880000035,108.77371120000043,left,1,108.27370880000035,108.27370880000035,0.37318490000052407,03,001,2022_Jul_06_1558,n_back,2021.2.3,60.017345012903746,
ZB-match_1-16571317862935221.csv,1,1,right,1,0,1,1,1,0,4,4,4,111.77375100000063,112.27377570000044,right,1,111.77375100000063,111.77375100000063,0.329333200000292,03,001,2022_Jul_06_1558,n_back,2021.2.3,60.017345012903746,
ZB-match_1-16571317862935221.csv,3,0,left,1,0,1,1,1,0,5,5,5,115.27382390000002,115.7738259000007,left,1,115.27382390000002,115.27382390000002,0.3652323999995133,03,001,2022_Jul_06_1558,n_back,2021.2.3,60.017345012903746,
ZB-match_1-16571317862935221.csv,8,0,left,1,0,1,1,1,0,6,6,6,118.77388640000026,119.27389440000024,left,1,118.77388640000026,118.77388640000026,0.36924220000037167,03,001,2022_Jul_06_1558,n_back,2021.2.3,60.017345012903746,
ZB-match_1-16571317862935221.csv,1,1,right,1,0,1,1,1,0,7,7,7,122.27391630000056,122.77393080000002,right,1,122.27391630000056,122.27391630000056,0.3091154000003371,03,001,2022_Jul_06_1558,n_back,2021.2.3,60.017345012903746,
ZB-match_1-16571317862935221.csv,1,1,right,1,0,1,1,1,0,8,8,8,125.77394730000015,126.27402180000081,right,1,125.77394730000015,125.77394730000015,0.40894849999949656,03,001,2022_Jul_06_1558,n_back,2021.2.3,60.017345012903746,
ZB-match_1-16571317862935221.csv,5,0,left,1,0,1,1,1,0,9,9,9,129.2740328000009,129.7740384000008,left,1,129.2740328000009,129.2740328000009,0.47701490000054036,03,001,2022_Jul_06_1558,n_back,2021.2.3,60.017345012903746,
ZB-match_1-16571317862935221.csv,1,1,right,1,0,1,1,1,0,10,10,10,132.77405790000012,133.27410040000086,right,1,132.77405790000012,132.77405790000012,0.40101810000032856,03,001,2022_Jul_06_1558,n_back,2021.2.3,60.017345012903746,
ZB-match_1-16571317862935221.csv,7,0,left,1,0,1,1,1,0,11,11,11,136.2741562000001,136.77416200000062,left,1,136.2741562000001,136.2741562000001,0.3728225000004386,03,001,2022_Jul_06_1558,n_back,2021.2.3,60.017345012903746,
ZB-match_1-16571317862935221.csv,8,0,left,1,0,1,1,1,0,12,12,12,139.77421570000024,140.2741958000006,left,1,139.77421570000024,139.77421570000024,0.40896729999985837,03,001,2022_Jul_06_1558,n_back,2021.2.3,60.017345012903746,
ZB-match_1-16571317862935221.csv,5,0,left,1,0,1,1,1,0,13,13,13,143.27426220000052,143.7742545000001,left,1,143.27426220000052,143.27426220000052,0.396772900000542,03,001,2022_Jul_06_1558,n_back,2021.2.3,60.017345012903746,
ZB-match_1-16571317862935221.csv,1,1,right,1,0,1,1,1,0,14,14,14,146.7743087000008,147.27431740000065,right,1,146.7743087000008,146.7743087000008,0.40085369999997056,03,001,2022_Jul_06_1558,n_back,2021.2.3,60.017345012903746,
ZB-match_1-16571317862935221.csv,1,1,right,1,0,1,1,1,0,15,15,15,150.27435210000021,150.77436770000077,right,1,150.27435210000021,150.27435210000021,0.43674340000052325,03,001,2022_Jul_06_1558,n_back,2021.2.3,60.017345012903746,
ZB-match_1-16571317862935221.csv,1,1,right,1,0,1,1,1,0,16,16,16,153.77442600000086,154.27443740000035,right,1,153.77442600000086,153.77442600000086,2.120867200000248,03,001,2022_Jul_06_1558,n_back,2021.2.3,60.017345012903746,
ZB-match_1-16571317862935221.csv,1,1,right,1,0,1,1,1,0,17,17,17,157.2744702000009,157.77448170000025,right,1,157.2744702000009,157.2744702000009,0.39659779999965394,03,001,2022_Jul_06_1558,n_back,2021.2.3,60.017345012903746,
ZB-match_1-16571317862935221.csv,9,0,left,1,0,1,1,1,0,18,18,18,160.77454120000039,161.2745429000006,left,1,160.77454120000039,160.77454120000039,0.43263310000020283,03,001,2022_Jul_06_1558,n_back,2021.2.3,60.017345012903746,
ZB-match_1-16571317862935221.csv,7,0,left,1,0,1,1,1,0,19,19,19,164.27459190000081,164.77459890000046,left,1,164.27459190000081,164.27459190000081,0.38840760000039154,03,001,2022_Jul_06_1558,n_back,2021.2.3,60.017345012903746,
ZB-match_1-16571317862935221.csv,,,,,0,1,1,1,,,,,,,,,,,,03,001,2022_Jul_06_1558,n_back,2021.2.3,60.017345012903746,
OB-1657131786840452.csv,6,0,left,,0,2,2,2,0,0,0,0,171.8080413000007,172.30801190000057,None,0,171.8080413000007,None,,03,001,2022_Jul_06_1558,n_back,2021.2.3,60.017345012903746,
OB-1657131786840452.csv,1,0,left,,0,2,2,2,0,1,1,1,175.3080931000004,175.80808670000079,left,1,175.3080931000004,175.3080931000004,0.42687840000053257,03,001,2022_Jul_06_1558,n_back,2021.2.3,60.017345012903746,
OB-1657131786840452.csv,3,0,left,,0,2,2,2,0,2,2,2,178.8081486000001,179.30815810000058,left,1,178.8081486000001,178.8081486000001,0.44698410000000877,03,001,2022_Jul_06_1558,n_back,2021.2.3,60.017345012903746,
OB-1657131786840452.csv,9,0,left,,0,2,2,2,0,3,3,3,182.30822250000074,182.80820050000057,left,1,182.30822250000074,182.30822250000074,0.4510117999998329,03,001,2022_Jul_06_1558,n_back,2021.2.3,60.017345012903746,
OB-1657131786840452.csv,9,1,right,,0,2,2,2,0,4,4,4,185.8082568000009,186.30826050000087,right,1,185.8082568000009,185.8082568000009,0.45468389999950887,03,001,2022_Jul_06_1558,n_back,2021.2.3,60.017345012903746,
OB-1657131786840452.csv,3,0,left,,0,2,2,2,0,5,5,5,189.30831370000033,189.80832240000018,left,1,189.30831370000033,189.30831370000033,0.49079689999962284,03,001,2022_Jul_06_1558,n_back,2021.2.3,60.017345012903746,
OB-1657131786840452.csv,0,0,left,,0,2,2,2,0,6,6,6,192.8083583000007,193.3083690000003,left,1,192.8083583000007,192.8083583000007,0.38277539999944565,03,001,2022_Jul_06_1558,n_back,2021.2.3,60.017345012903746,
OB-1657131786840452.csv,0,1,right,,0,2,2,2,0,7,7,7,196.30842120000034,196.8084187000004,right,1,196.30842120000034,196.30842120000034,0.5305501999991975,03,001,2022_Jul_06_1558,n_back,2021.2.3,60.017345012903746,
OB-1657131786840452.csv,6,0,left,,0,2,2,2,0,8,8,8,199.80847150000045,200.3084746000004,left,1,199.80847150000045,199.80847150000045,0.5026621999995768,03,001,2022_Jul_06_1558,n_back,2021.2.3,60.017345012903746,
OB-1657131786840452.csv,5,0,left,,0,2,2,2,0,9,9,9,203.30852790000063,203.8085273000006,left,1,203.30852790000063,203.30852790000063,0.5225062999998045,03,001,2022_Jul_06_1558,n_back,2021.2.3,60.017345012903746,
OB-1657131786840452.csv,5,1,right,,0,2,2,2,0,10,10,10,206.80858160000025,207.30856360000053,right,1,206.80858160000025,206.80858160000025,0.574656299999333,03,001,2022_Jul_06_1558,n_back,2021.2.3,60.017345012903746,
OB-1657131786840452.csv,5,1,right,,0,2,2,2,0,11,11,11,210.3086546000004,210.80866550000064,right,1,210.3086546000004,210.3086546000004,0.3703456000002916,03,001,2022_Jul_06_1558,n_back,2021.2.3,60.017345012903746,
OB-1657131786840452.csv,6,0,left,,0,2,2,2,0,12,12,12,213.80867510000007,214.30869190000067,left,1,213.80867510000007,213.80867510000007,0.4224080000003596,03,001,2022_Jul_06_1558,n_back,2021.2.3,60.017345012903746,
OB-1657131786840452.csv,6,1,right,,0,2,2,2,0,13,13,13,217.30871190000016,217.80875580000065,right,1,217.30871190000016,217.30871190000016,0.42639109999981883,03,001,2022_Jul_06_1558,n_back,2021.2.3,60.017345012903746,
OB-1657131786840452.csv,6,1,right,,0,2,2,2,0,14,14,14,220.8087968000009,221.3088131000004,right,1,220.8087968000009,220.8087968000009,0.4143002000000706,03,001,2022_Jul_06_1558,n_back,2021.2.3,60.017345012903746,
OB-1657131786840452.csv,6,1,right,,0,2,2,2,0,15,15,15,224.30880160000015,224.8088645000007,right,1,224.30880160000015,224.30880160000015,0.37040690000048926,03,001,2022_Jul_06_1558,n_back,2021.2.3,60.017345012903746,
OB-1657131786840452.csv,8,0,left,,0,2,2,2,0,16,16,16,227.8089084000003,228.30890270000054,left,1,227.8089084000003,227.8089084000003,0.48632939999970404,03,001,2022_Jul_06_1558,n_back,2021.2.3,60.017345012903746,
OB-1657131786840452.csv,4,0,left,,0,2,2,2,0,17,17,17,231.30896680000023,231.80897910000022,left,1,231.30896680000023,231.30896680000023,0.3620192999997016,03,001,2022_Jul_06_1558,n_back,2021.2.3,60.017345012903746,
OB-1657131786840452.csv,4,1,right,,0,2,2,2,0,18,18,18,234.80901220000032,235.30901920000088,right,1,234.80901220000032,234.80901220000032,0.4300473000002967,03,001,2022_Jul_06_1558,n_back,2021.2.3,60.017345012903746,
OB-1657131786840452.csv,9,0,left,,0,2,2,2,0,19,19,19,238.30908050000016,238.80907450000086,left,1,238.30908050000016,238.30908050000016,0.4339175000004616,03,001,2022_Jul_06_1558,n_back,2021.2.3,60.017345012903746,
OB-1657131786840452.csv,,,,,0,2,2,2,,,,,,,,,,,,03,001,2022_Jul_06_1558,n_back,2021.2.3,60.017345012903746,
OB-16571317868141544.csv,7,0,left,,0,3,3,3,0,0,0,0,245.825871,246.32586980000087,None,0,245.825871,None,,03,001,2022_Jul_06_1558,n_back,2021.2.3,60.017345012903746,
OB-16571317868141544.csv,1,0,left,,0,3,3,3,0,1,1,1,249.32590000000073,249.82591050000065,left,1,249.32590000000073,249.32590000000073,0.4571353999999701,03,001,2022_Jul_06_1558,n_back,2021.2.3,60.017345012903746,
OB-16571317868141544.csv,1,1,right,,0,3,3,3,0,2,2,2,252.82596510000076,253.32596840000042,right,1,252.82596510000076,252.82596510000076,0.3011421999999584,03,001,2022_Jul_06_1558,n_back,2021.2.3,60.017345012903746,
OB-16571317868141544.csv,7,0,left,,0,3,3,3,0,3,3,3,256.3260719000009,256.8260183000002,left,1,256.3260719000009,256.3260719000009,1.9689244000001054,03,001,2022_Jul_06_1558,n_back,2021.2.3,60.017345012903746,
OB-16571317868141544.csv,7,1,right,,0,3,3,3,0,4,4,4,259.8260730000002,260.3260581000004,right,1,259.8260730000002,259.8260730000002,0.5650966000002882,03,001,2022_Jul_06_1558,n_back,2021.2.3,60.017345012903746,
OB-16571317868141544.csv,7,1,right,,0,3,3,3,0,5,5,5,263.32610530000056,263.8261439000007,right,1,263.32610530000056,263.32610530000056,0.37683449999985896,03,001,2022_Jul_06_1558,n_back,2021.2.3,60.017345012903746,
OB-16571317868141544.csv,8,0,left,,0,3,3,3,0,6,6,6,266.8261949000007,267.32619650000015,left,1,266.8261949000007,266.8261949000007,0.46087489999990794,03,001,2022_Jul_06_1558,n_back,2021.2.3,60.017345012903746,
OB-16571317868141544.csv,8,1,right,,0,3,3,3,0,7,7,7,270.32624920000035,270.8262048000006,right,1,270.32624920000035,270.32624920000035,0.4327880000000732,03,001,2022_Jul_06_1558,n_back,2021.2.3,60.017345012903746,
OB-16571317868141544.csv,0,0,left,,0,3,3,3,0,8,8,8,273.82627760000014,274.32629330000054,left,1,273.82627760000014,273.82627760000014,0.42088820000026317,03,001,2022_Jul_06_1558,n_back,2021.2.3,60.017345012903746,
OB-16571317868141544.csv,0,1,right,,0,3,3,3,0,9,9,9,277.3263497000007,277.8263614000007,right,1,277.3263497000007,277.3263497000007,0.584756400000515,03,001,2022_Jul_06_1558,n_back,2021.2.3,60.017345012903746,
OB-16571317868141544.csv,8,0,left,,0,3,3,3,0,10,10,10,280.82638980000047,281.32639800000015,left,1,280.82638980000047,280.82638980000047,0.6687775000000329,03,001,2022_Jul_06_1558,n_back,2021.2.3,60.017345012903746,
OB-16571317868141544.csv,8,1,right,,0,3,3,3,0,11,11,11,284.32645650000086,284.8264699000001,right,1,284.32645650000086,284.32645650000086,0.6084704999993846,03,001,2022_Jul_06_1558,n_back,2021.2.3,60.017345012903746,
OB-16571317868141544.csv,8,1,right,,0,3,3,3,0,12,12,12,287.8265143000008,288.3265143000008,right,1,287.8265143000008,287.8265143000008,0.42063430000052904,03,001,2022_Jul_06_1558,n_back,2021.2.3,60.017345012903746,
OB-16571317868141544.csv,9,0,left,,0,3,3,3,0,13,13,13,291.3265803000004,291.8265667000005,left,1,291.3265803000004,291.3265803000004,0.5204554000001735,03,001,2022_Jul_06_1558,n_back,2021.2.3,60.017345012903746,
OB-16571317868141544.csv,8,0,left,,0,3,3,3,0,14,14,14,294.82662620000065,295.32663010000033,right,0,294.82662620000065,294.82662620000065,0.42839879999974073,03,001,2022_Jul_06_1558,n_back,2021.2.3,60.017345012903746,
OB-16571317868141544.csv,6,0,left,,0,3,3,3,0,15,15,15,298.3266848000003,298.82668600000034,left,1,298.3266848000003,298.3266848000003,0.5602749999998196,03,001,2022_Jul_06_1558,n_back,2021.2.3,60.017345012903746,
OB-16571317868141544.csv,3,0,left,,0,3,3,3,0,16,16,16,301.8266914000005,302.32674080000015,left,1,301.8266914000005,301.8266914000005,0.5322084999997969,03,001,2022_Jul_06_1558,n_back,2021.2.3,60.017345012903746,
OB-16571317868141544.csv,6,0,left,,0,3,3,3,0,17,17,17,305.3267820000001,305.82678680000026,left,1,305.3267820000001,305.3267820000001,0.6161554999998771,03,001,2022_Jul_06_1558,n_back,2021.2.3,60.017345012903746,
OB-16571317868141544.csv,6,1,right,,0,3,3,3,0,18,18,18,308.82688880000023,309.32684620000055,right,1,308.82688880000023,308.82688880000023,0.4760326999994504,03,001,2022_Jul_06_1558,n_back,2021.2.3,60.017345012903746,
OB-16571317868141544.csv,0,0,left,,0,3,3,3,0,19,19,19,312.3268919000002,312.82690320000074,left,1,312.3268919000002,312.3268919000002,0.48001529999964987,03,001,2022_Jul_06_1558,n_back,2021.2.3,60.017345012903746,
OB-16571317868141544.csv,,,,,0,3,3,3,,,,,,,,,,,,03,001,2022_Jul_06_1558,n_back,2021.2.3,60.017345012903746,
TB-1657131787163465.csv,3,0,left,,0,4,4,4,0,0,0,0,320.36035730000003,320.8603268000006,None,0,320.36035730000003,None,,03,001,2022_Jul_06_1558,n_back,2021.2.3,60.017345012903746,
TB-1657131787163465.csv,2,0,left,,0,4,4,4,0,1,1,1,323.8604165000006,324.36041360000036,None,0,323.8604165000006,323.8604165000006,,03,001,2022_Jul_06_1558,n_back,2021.2.3,60.017345012903746,
TB-1657131787163465.csv,7,0,left,,0,4,4,4,0,2,2,2,327.3604626000006,327.86046870000064,left,1,327.3604626000006,327.3604626000006,0.5346012999998493,03,001,2022_Jul_06_1558,n_back,2021.2.3,60.017345012903746,
TB-1657131787163465.csv,4,0,left,,0,4,4,4,0,3,3,3,330.8605384000002,331.36051280000083,left,1,330.8605384000002,330.8605384000002,0.5704690000002302,03,001,2022_Jul_06_1558,n_back,2021.2.3,60.017345012903746,
TB-1657131787163465.csv,7,1,right,,0,4,4,4,0,4,4,4,334.36056310000004,334.8605804000008,right,1,334.36056310000004,334.36056310000004,0.5743658000001233,03,001,2022_Jul_06_1558,n_back,2021.2.3,60.017345012903746,
TB-1657131787163465.csv,4,1,right,,0,4,4,4,0,5,5,5,337.8606185000008,338.3606260000006,right,1,337.8606185000008,337.8606185000008,0.5306080999998812,03,001,2022_Jul_06_1558,n_back,2021.2.3,60.017345012903746,
TB-1657131787163465.csv,3,0,left,,0,4,4,4,0,6,6,6,341.360678,341.86067040000034,left,1,341.360678,341.360678,0.5505999999995765,03,001,2022_Jul_06_1558,n_back,2021.2.3,60.017345012903746,
TB-1657131787163465.csv,2,0,left,,0,4,4,4,0,7,7,7,344.86072800000056,345.3607406000001,left,1,344.86072800000056,344.86072800000056,0.586490099999537,03,001,2022_Jul_06_1558,n_back,2021.2.3,60.017345012903746,
TB-1657131787163465.csv,3,1,right,,0,4,4,4,0,8,8,8,348.36078390000057,348.86077790000036,right,1,348.36078390000057,348.36078390000057,0.798157899999751,03,001,2022_Jul_06_1558,n_back,2021.2.3,60.017345012903746,
TB-1657131787163465.csv,2,1,right,,0,4,4,4,0,9,9,9,351.8608410000006,352.36084070000015,right,1,351.8608410000006,351.8608410000006,0.4503214000005755,03,001,2022_Jul_06_1558,n_back,2021.2.3,60.017345012903746,
TB-1657131787163465.csv,3,1,right,,0,4,4,4,0,10,10,10,355.36086890000024,355.86089000000084,right,1,355.36086890000024,355.36086890000024,0.3901892999992924,03,001,2022_Jul_06_1558,n_back,2021.2.3,60.017345012903746,
TB-1657131787163465.csv,3,0,left,,0,4,4,4,0,11,11,11,358.8609312000008,359.36097380000047,right,0,358.8609312000008,358.8609312000008,0.42594980000012583,03,001,2022_Jul_06_1558,n_back,2021.2.3,60.017345012903746,
TB-1657131787163465.csv,6,0,left,,0,4,4,4,0,12,12,12,362.3609956,362.86100570000053,left,1,362.3609956,362.3609956,1.3261587999995754,03,001,2022_Jul_06_1558,n_back,2021.2.3,60.017345012903746,
TB-1657131787163465.csv,7,0,left,,0,4,4,4,0,13,13,13,365.8610483000002,366.36103320000075,left,1,365.8610483000002,365.8610483000002,0.6738594999997076,03,001,2022_Jul_06_1558,n_back,2021.2.3,60.017345012903746,
TB-1657131787163465.csv,2,0,left,,0,4,4,4,0,14,14,14,369.3610989000008,369.86111580000033,left,1,369.3610989000008,369.3610989000008,0.5819817999999941,03,001,2022_Jul_06_1558,n_back,2021.2.3,60.017345012903746,
TB-1657131787163465.csv,3,0,left,,0,4,4,4,0,15,15,15,372.8611505000008,373.36116010000023,left,1,372.8611505000008,372.8611505000008,0.5538653999992675,03,001,2022_Jul_06_1558,n_back,2021.2.3,60.017345012903746,
TB-1657131787163465.csv,6,0,left,,0,4,4,4,0,16,16,16,376.3612185000002,376.86120930000016,left,1,376.3612185000002,376.3612185000002,0.8937383000002228,03,001,2022_Jul_06_1558,n_back,2021.2.3,60.017345012903746,
TB-1657131787163465.csv,3,1,right,,0,4,4,4,0,17,17,17,379.86127080000006,380.3612363000002,right,1,379.86127080000006,379.86127080000006,0.35397459999967396,03,001,2022_Jul_06_1558,n_back,2021.2.3,60.017345012903746,
TB-1657131787163465.csv,6,1,right,,0,4,4,4,0,18,18,18,383.3613266000002,383.8613228000004,right,1,383.3613266000002,383.3613266000002,0.4374982999997883,03,001,2022_Jul_06_1558,n_back,2021.2.3,60.017345012903746,
TB-1657131787163465.csv,3,1,right,,0,4,4,4,0,19,19,19,386.86134500000026,387.36139710000043,right,1,386.86134500000026,386.86134500000026,0.37761199999931705,03,001,2022_Jul_06_1558,n_back,2021.2.3,60.017345012903746,
TB-1657131787163465.csv,,,,,0,4,4,4,,,,,,,,,,,,03,001,2022_Jul_06_1558,n_back,2021.2.3,60.017345012903746,
OB-16571317867791038.csv,2,0,left,,0,5,5,5,0,0,0,0,394.37817300000006,394.8781555000005,None,0,394.37817300000006,None,,03,001,2022_Jul_06_1558,n_back,2021.2.3,60.017345012903746,
OB-16571317867791038.csv,2,1,right,,0,5,5,5,0,1,1,1,397.8782473000001,398.3781987000002,right,1,397.8782473000001,397.8782473000001,0.4971832999999606,03,001,2022_Jul_06_1558,n_back,2021.2.3,60.017345012903746,
OB-16571317867791038.csv,5,0,left,,0,5,5,5,0,2,2,2,401.37826340000083,401.87829670000065,left,1,401.37826340000083,401.37826340000083,0.5807062000003498,03,001,2022_Jul_06_1558,n_back,2021.2.3,60.017345012903746,
OB-16571317867791038.csv,5,1,right,,0,5,5,5,0,3,3,3,404.8783267000008,405.37833860000046,right,1,404.8783267000008,404.8783267000008,0.45670329999938986,03,001,2022_Jul_06_1558,n_back,2021.2.3,60.017345012903746,
OB-16571317867791038.csv,5,1,right,,0,5,5,5,0,4,4,4,408.3783712000004,408.87841090000074,right,1,408.3783712000004,408.3783712000004,0.4605258000001413,03,001,2022_Jul_06_1558,n_back,2021.2.3,60.017345012903746,
OB-16571317867791038.csv,9,0,left,,0,5,5,5,0,5,5,5,411.8784290000003,412.3784284000003,left,1,411.8784290000003,411.8784290000003,0.4165084999995088,03,001,2022_Jul_06_1558,n_back,2021.2.3,60.017345012903746,
OB-16571317867791038.csv,7,0,left,,0,5,5,5,0,6,6,6,415.37849500000084,415.87849220000044,left,1,415.37849500000084,415.37849500000084,0.5484833000000435,03,001,2022_Jul_06_1558,n_back,2021.2.3,60.017345012903746,
OB-16571317867791038.csv,0,0,left,,0,5,5,5,0,7,7,7,418.8785305000001,419.3785131000004,left,1,418.8785305000001,418.8785305000001,0.4246285999997781,03,001,2022_Jul_06_1558,n_back,2021.2.3,60.017345012903746,
OB-16571317867791038.csv,8,0,left,,0,5,5,5,0,8,8,8,422.37856550000015,422.8786166000009,left,1,422.37856550000015,422.37856550000015,0.4923039000004792,03,001,2022_Jul_06_1558,n_back,2021.2.3,60.017345012903746,
OB-16571317867791038.csv,8,1,right,,0,5,5,5,0,9,9,9,425.8786404000002,426.3786572000008,right,1,425.8786404000002,425.8786404000002,0.592234699999608,03,001,2022_Jul_06_1558,n_back,2021.2.3,60.017345012903746,
OB-16571317867791038.csv,8,1,right,,0,5,5,5,0,10,10,10,429.37870120000025,429.87870980000025,right,1,429.37870120000025,429.37870120000025,0.38817459999972925,03,001,2022_Jul_06_1558,n_back,2021.2.3,60.017345012903746,
OB-16571317867791038.csv,4,0,left,,0,5,5,5,0,11,11,11,432.8787686000005,433.37875130000066,left,1,432.8787686000005,432.8787686000005,0.4401279000003342,03,001,2022_Jul_06_1558,n_back,2021.2.3,60.017345012903746,
OB-16571317867791038.csv,6,0,left,,0,5,5,5,0,12,12,12,436.3788047000007,436.8788080000004,left,1,436.3788047000007,436.3788047000007,0.6682052000005569,03,001,2022_Jul_06_1558,n_back,2021.2.3,60.017345012903746,
OB-16571317867791038.csv,9,0,left,,0,5,5,5,0,13,13,13,439.87886720000006,440.3788594000007,left,1,439.87886720000006,439.87886720000006,0.5600186000001486,03,001,2022_Jul_06_1558,n_back,2021.2.3,60.017345012903746,
OB-16571317867791038.csv,9,1,right,,0,5,5,5,0,14,14,14,443.3789235000004,443.87892920000013,right,1,443.3789235000004,443.3789235000004,0.3881344999999783,03,001,2022_Jul_06_1558,n_back,2021.2.3,60.017345012903746,
OB-16571317867791038.csv,9,1,right,,0,5,5,5,0,15,15,15,446.87894700000015,447.3789734000002,right,1,446.87894700000015,446.87894700000015,0.4081120999999257,03,001,2022_Jul_06_1558,n_back,2021.2.3,60.017345012903746,
OB-16571317867791038.csv,1,0,left,,0,5,5,5,0,16,16,16,450.3790144000004,450.8790321000006,left,1,450.3790144000004,450.3790144000004,0.5400845000003756,03,001,2022_Jul_06_1558,n_back,2021.2.3,60.017345012903746,
OB-16571317867791038.csv,3,0,left,,0,5,5,5,0,17,17,17,453.8790869000004,454.3790918000004,left,1,453.8790869000004,453.8790869000004,0.39995379999982106,03,001,2022_Jul_06_1558,n_back,2021.2.3,60.017345012903746,
OB-16571317867791038.csv,4,0,left,,0,5,5,5,0,18,18,18,457.3791187000006,457.8792019000002,left,1,457.3791187000006,457.3791187000006,0.5639546000002156,03,001,2022_Jul_06_1558,n_back,2021.2.3,60.017345012903746,
OB-16571317867791038.csv,4,1,right,,0,5,5,5,0,19,19,19,460.87919000000056,461.37919710000006,right,1,460.87919000000056,460.87919000000056,0.35967429999982414,03,001,2022_Jul_06_1558,n_back,2021.2.3,60.017345012903746,
OB-16571317867791038.csv,,,,,0,5,5,5,,,,,,,,,,,,03,001,2022_Jul_06_1558,n_back,2021.2.3,60.017345012903746,
TB-16571317877702205.csv,2,0,left,,0,6,6,6,0,0,0,0,468.7126343000009,469.2126506000004,None,0,468.7126343000009,None,,03,001,2022_Jul_06_1558,n_back,2021.2.3,60.017345012903746,
TB-16571317877702205.csv,3,0,left,,0,6,6,6,0,1,1,1,472.2126900000003,472.71271420000085,None,0,472.2126900000003,472.2126900000003,,03,001,2022_Jul_06_1558,n_back,2021.2.3,60.017345012903746,
TB-16571317877702205.csv,3,0,left,,0,6,6,6,0,2,2,2,475.71273400000064,476.21273740000015,left,1,475.71273400000064,475.71273400000064,0.4862849000001006,03,001,2022_Jul_06_1558,n_back,2021.2.3,60.017345012903746,
TB-16571317877702205.csv,3,1,right,,0,6,6,6,0,3,3,3,479.21280620000016,479.71281460000046,right,1,479.21280620000016,479.21280620000016,0.5381879999995363,03,001,2022_Jul_06_1558,n_back,2021.2.3,60.017345012903746,
TB-16571317877702205.csv,3,1,right,,0,6,6,6,0,4,4,4,482.7128610000009,483.2128655000006,right,1,482.7128610000009,482.7128610000009,0.3660380000001169,03,001,2022_Jul_06_1558,n_back,2021.2.3,60.017345012903746,
TB-16571317877702205.csv,7,0,left,,0,6,6,6,0,5,5,5,486.21291760000076,486.7129113000001,left,1,486.21291760000076,486.21291760000076,0.48220760000003793,03,001,2022_Jul_06_1558,n_back,2021.2.3,60.017345012903746,
TB-16571317877702205.csv,3,1,right,,0,6,6,6,0,6,6,6,489.71297630000026,490.21297050000067,right,1,489.71297630000026,489.71297630000026,0.4860823999997592,03,001,2022_Jul_06_1558,n_back,2021.2.3,60.017345012903746,
TB-16571317877702205.csv,4,0,left,,0,6,6,6,0,7,7,7,493.2130235000004,493.7130246000006,left,1,493.2130235000004,493.2130235000004,0.49004210000020976,03,001,2022_Jul_06_1558,n_back,2021.2.3,60.017345012903746,
TB-16571317877702205.csv,3,1,right,,0,6,6,6,0,8,8,8,496.7130741000001,497.21309350000047,right,1,496.7130741000001,496.7130741000001,0.5257711999993262,03,001,2022_Jul_06_1558,n_back,2021.2.3,60.017345012903746,
TB-16571317877702205.csv,8,0,left,,0,6,6,6,0,9,9,9,500.21312000000034,500.7131358000006,left,1,500.21312000000034,500.21312000000034,0.4178349000003436,03,001,2022_Jul_06_1558,n_back,2021.2.3,60.017345012903746,
TB-16571317877702205.csv,3,1,right,,0,6,6,6,0,10,10,10,503.7131696000006,504.21319740000035,right,1,503.7131696000006,503.7131696000006,0.5977724000003946,03,001,2022_Jul_06_1558,n_back,2021.2.3,60.017345012903746,
TB-16571317877702205.csv,8,1,right,,0,6,6,6,0,11,11,11,507.21323460000076,507.71323200000006,right,1,507.21323460000076,507.21323460000076,0.7137241000000358,03,001,2022_Jul_06_1558,n_back,2021.2.3,60.017345012903746,
TB-16571317877702205.csv,7,0,left,,0,6,6,6,0,12,12,12,510.71326920000047,511.2132698000005,left,1,510.71326920000047,510.71326920000047,0.5736801000002743,03,001,2022_Jul_06_1558,n_back,2021.2.3,60.017345012903746,
TB-16571317877702205.csv,8,1,right,,0,6,6,6,0,13,13,13,514.2133468000002,514.7133622000001,right,1,514.2133468000002,514.2133468000002,0.3377976000001581,03,001,2022_Jul_06_1558,n_back,2021.2.3,60.017345012903746,
TB-16571317877702205.csv,2,0,left,,0,6,6,6,0,14,14,14,517.7134087000004,518.2134121000008,left,1,517.7134087000004,517.7134087000004,0.48553650000030757,03,001,2022_Jul_06_1558,n_back,2021.2.3,60.017345012903746,
TB-16571317877702205.csv,8,1,right,,0,6,6,6,0,15,15,15,521.2134528000006,521.7134553000005,right,1,521.2134528000006,521.2134528000006,0.32973260000017035,03,001,2022_Jul_06_1558,n_back,2021.2.3,60.017345012903746,
TB-16571317877702205.csv,3,0,left,,0,6,6,6,0,16,16,16,524.7135028000002,525.2134802,left,1,524.7135028000002,524.7135028000002,0.5094247999995787,03,001,2022_Jul_06_1558,n_back,2021.2.3,60.017345012903746,
TB-16571317877702205.csv,1,0,left,,0,6,6,6,0,17,17,17,528.2135214000009,528.7135655000002,left,1,528.2135214000009,528.2135214000009,0.9613171000000875,03,001,2022_Jul_06_1558,n_back,2021.2.3,60.017345012903746,
TB-16571317877702205.csv,6,0,left,,0,6,6,6,0,18,18,18,531.7136507000005,532.2136041000003,left,1,531.7136507000005,531.7136507000005,0.6133254000005763,03,001,2022_Jul_06_1558,n_back,2021.2.3,60.017345012903746,
TB-16571317877702205.csv,3,0,left,,0,6,6,6,0,19,19,19,535.2136606000004,535.7136798000001,left,1,535.2136606000004,535.2136606000004,0.5052122999995845,03,001,2022_Jul_06_1558,n_back,2021.2.3,60.017345012903746,
TB-16571317877702205.csv,,,,,0,6,6,6,,,,,,,,,,,,03,001,2022_Jul_06_1558,n_back,2021.2.3,60.017345012903746,
ZB-match_1-16571317861927297.csv,1,1,right,1,0,7,7,7,0,0,0,0,542.7471672000001,543.2471245000006,right,1,542.7471672000001,None,0.3957468999997218,03,001,2022_Jul_06_1558,n_back,2021.2.3,60.017345012903746,
ZB-match_1-16571317861927297.csv,4,0,left,1,0,7,7,7,0,1,1,1,546.2471450000003,546.7471709000001,left,1,546.2471450000003,546.2471450000003,0.44791350000014063,03,001,2022_Jul_06_1558,n_back,2021.2.3,60.017345012903746,
ZB-match_1-16571317861927297.csv,0,0,left,1,0,7,7,7,0,2,2,2,549.7472326000006,550.2472267000003,left,1,549.7472326000006,549.7472326000006,0.4836918999999398,03,001,2022_Jul_06_1558,n_back,2021.2.3,60.017345012903746,
ZB-match_1-16571317861927297.csv,1,1,right,1,0,7,7,7,0,3,3,3,553.2472835000008,553.747292,right,1,553.2472835000008,553.2472835000008,0.4235803000001397,03,001,2022_Jul_06_1558,n_back,2021.2.3,60.017345012903746,
ZB-match_1-16571317861927297.csv,7,0,left,1,0,7,7,7,0,4,4,4,556.7473264,557.2473509000001,left,1,556.7473264,556.7473264,0.36353589999998803,03,001,2022_Jul_06_1558,n_back,2021.2.3,60.017345012903746,
ZB-match_1-16571317861927297.csv,1,1,right,1,0,7,7,7,0,5,5,5,560.2473774,560.7473879000008,right,1,560.2473774,560.2473774,0.335658400000284,03,001,2022_Jul_06_1558,n_back,2021.2.3,60.017345012903746,
ZB-match_1-16571317861927297.csv,1,1,right,1,0,7,7,7,0,6,6,6,563.7474570000004,564.2474338000002,right,1,563.7474570000004,563.7474570000004,0.3394626999997854,03,001,2022_Jul_06_1558,n_back,2021.2.3,60.017345012903746,
ZB-match_1-16571317861927297.csv,3,0,left,1,0,7,7,7,0,7,7,7,567.2475049000004,567.7475105000003,left,1,567.2475049000004,567.2475049000004,0.37530429999969783,03,001,2022_Jul_06_1558,n_back,2021.2.3,60.017345012903746,
ZB-match_1-16571317861927297.csv,4,0,left,1,0,7,7,7,0,8,8,8,570.7475403000008,571.2475689000003,left,1,570.7475403000008,570.7475403000008,0.4433230000004187,03,001,2022_Jul_06_1558,n_back,2021.2.3,60.017345012903746,
ZB-match_1-16571317861927297.csv,1,1,right,1,0,7,7,7,0,9,9,9,574.2476105000005,574.7475976000005,right,1,574.2476105000005,574.2476105000005,0.39940389999992476,03,001,2022_Jul_06_1558,n_back,2021.2.3,60.017345012903746,
ZB-match_1-16571317861927297.csv,1,1,right,1,0,7,7,7,0,10,10,10,577.7476615000005,578.2476804000007,right,1,577.7476615000005,577.7476615000005,0.467261700000563,03,001,2022_Jul_06_1558,n_back,2021.2.3,60.017345012903746,
ZB-match_1-16571317861927297.csv,1,1,right,1,0,7,7,7,0,11,11,11,581.2477176000002,581.7477257,right,1,581.2477176000002,581.2477176000002,0.43925299999955314,03,001,2022_Jul_06_1558,n_back,2021.2.3,60.017345012903746,
ZB-match_1-16571317861927297.csv,9,0,left,1,0,7,7,7,0,12,12,12,584.7477346000005,585.2477681,left,1,584.7477346000005,584.7477346000005,0.39505300000018906,03,001,2022_Jul_06_1558,n_back,2021.2.3,60.017345012903746,
ZB-match_1-16571317861927297.csv,4,0,left,1,0,7,7,7,0,13,13,13,588.2478093000009,588.7478183000003,left,1,588.2478093000009,588.2478093000009,0.44704769999952987,03,001,2022_Jul_06_1558,n_back,2021.2.3,60.017345012903746,
ZB-match_1-16571317861927297.csv,9,0,left,1,0,7,7,7,0,14,14,14,591.7478944000004,592.2478550000005,left,1,591.7478944000004,591.7478944000004,0.3872110000002067,03,001,2022_Jul_06_1558,n_back,2021.2.3,60.017345012903746,
ZB-match_1-16571317861927297.csv,7,0,left,1,0,7,7,7,0,15,15,15,595.2479300000005,595.7479348000006,left,1,595.2479300000005,595.2479300000005,0.37510629999997036,03,001,2022_Jul_06_1558,n_back,2021.2.3,60.017345012903746,
ZB-match_1-16571317861927297.csv,9,0,left,1,0,7,7,7,0,16,16,16,598.7479776,599.2480025000004,left,1,598.7479776,598.7479776,0.41097499999978027,03,001,2022_Jul_06_1558,n_back,2021.2.3,60.017345012903746,
ZB-match_1-16571317861927297.csv,1,1,right,1,0,7,7,7,0,17,17,17,602.2480314000004,602.7480441000007,right,1,602.2480314000004,602.2480314000004,0.41488009999920905,03,001,2022_Jul_06_1558,n_back,2021.2.3,60.017345012903746,
ZB-match_1-16571317861927297.csv,3,0,left,1,0,7,7,7,0,18,18,18,605.7480609000004,606.2480926000007,None,0,605.7480609000004,605.7480609000004,,03,001,2022_Jul_06_1558,n_back,2021.2.3,60.017345012903746,
ZB-match_1-16571317861927297.csv,1,1,right,1,0,7,7,7,0,19,19,19,609.2481585000005,609.7481990000006,right,1,609.2481585000005,609.2481585000005,0.4070192999997744,03,001,2022_Jul_06_1558,n_back,2021.2.3,60.017345012903746,
ZB-match_1-16571317861927297.csv,,,,,0,7,7,7,,,,,,,,,,,,03,001,2022_Jul_06_1558,n_back,2021.2.3,60.017345012903746,
ZB-match_4-16571317865062299.csv,5,0,left,4,0,8,8,8,0,0,0,0,617.2815998000005,617.7816069,left,1,617.2815998000005,None,0.4854622000002564,03,001,2022_Jul_06_1558,n_back,2021.2.3,60.017345012903746,
ZB-match_4-16571317865062299.csv,8,0,left,4,0,8,8,8,0,1,1,1,620.7816485000003,621.2816618000006,left,1,620.7816485000003,620.7816485000003,0.3935050999998566,03,001,2022_Jul_06_1558,n_back,2021.2.3,60.017345012903746,
ZB-match_4-16571317865062299.csv,4,1,right,4,0,8,8,8,0,2,2,2,624.2817078000007,624.7817065000008,right,1,624.2817078000007,624.2817078000007,0.4773808999998437,03,001,2022_Jul_06_1558,n_back,2021.2.3,60.017345012903746,
ZB-match_4-16571317865062299.csv,2,0,left,4,0,8,8,8,0,3,3,3,627.7817532000008,628.2817734,left,1,627.7817532000008,627.7817532000008,0.4651317999996536,03,001,2022_Jul_06_1558,n_back,2021.2.3,60.017345012903746,
ZB-match_4-16571317865062299.csv,3,0,left,4,0,8,8,8,0,4,4,4,631.2818299,631.7818379,left,1,631.2818299,631.2818299,0.3893652999995538,03,001,2022_Jul_06_1558,n_back,2021.2.3,60.017345012903746,
ZB-match_4-16571317865062299.csv,4,1,right,4,0,8,8,8,0,5,5,5,634.7818785000009,635.2818816000008,right,1,634.7818785000009,634.7818785000009,0.3770715000000564,03,001,2022_Jul_06_1558,n_back,2021.2.3,60.017345012903746,
ZB-match_4-16571317865062299.csv,8,0,left,4,0,8,8,8,0,6,6,6,638.2819134000001,638.7819253000007,left,1,638.2819134000001,638.2819134000001,0.36494459999994433,03,001,2022_Jul_06_1558,n_back,2021.2.3,60.017345012903746,
ZB-match_4-16571317865062299.csv,3,0,left,4,0,8,8,8,0,7,7,7,641.7819869000004,642.2819948000006,left,1,641.7819869000004,641.7819869000004,0.35298129999955563,03,001,2022_Jul_06_1558,n_back,2021.2.3,60.017345012903746,
ZB-match_4-16571317865062299.csv,6,0,left,4,0,8,8,8,0,8,8,8,645.2820238000004,645.7820456000009,left,1,645.2820238000004,645.2820238000004,0.34077329999945505,03,001,2022_Jul_06_1558,n_back,2021.2.3,60.017345012903746,
ZB-match_4-16571317865062299.csv,1,0,left,4,0,8,8,8,0,9,9,9,648.7820923000008,649.2821042000005,left,1,648.7820923000008,648.7820923000008,0.40880010000000766,03,001,2022_Jul_06_1558,n_back,2021.2.3,60.017345012903746,
ZB-match_4-16571317865062299.csv,8,0,left,4,0,8,8,8,0,10,10,10,652.2821357000003,652.78215,left,1,652.2821357000003,652.2821357000003,0.3646980000003168,03,001,2022_Jul_06_1558,n_back,2021.2.3,60.017345012903746,
ZB-match_4-16571317865062299.csv,4,1,right,4,0,8,8,8,0,11,11,11,655.7822009000001,656.2822023000008,right,1,655.7822009000001,655.7822009000001,0.4326356000001397,03,001,2022_Jul_06_1558,n_back,2021.2.3,60.017345012903746,
ZB-match_4-16571317865062299.csv,4,1,right,4,0,8,8,8,0,12,12,12,659.2822670000005,659.7822513000001,right,1,659.2822670000005,659.2822670000005,0.4205007000000478,03,001,2022_Jul_06_1558,n_back,2021.2.3,60.017345012903746,
ZB-match_4-16571317865062299.csv,4,1,right,4,0,8,8,8,0,13,13,13,662.7823281000001,663.2822746000002,right,1,662.7823281000001,662.7823281000001,0.360848100000112,03,001,2022_Jul_06_1558,n_back,2021.2.3,60.017345012903746,
ZB-match_4-16571317865062299.csv,4,1,right,4,0,8,8,8,0,14,14,14,666.2823625000001,666.7823637000001,right,1,666.2823625000001,666.2823625000001,0.33280219999960536,03,001,2022_Jul_06_1558,n_back,2021.2.3,60.017345012903746,
ZB-match_4-16571317865062299.csv,4,1,right,4,0,8,8,8,0,15,15,15,669.7824139000004,670.2824227000001,right,1,669.7824139000004,669.7824139000004,0.3847309000002497,03,001,2022_Jul_06_1558,n_back,2021.2.3,60.017345012903746,
ZB-match_4-16571317865062299.csv,1,0,left,4,0,8,8,8,0,16,16,16,673.2824758000006,673.7824823000001,left,1,673.2824758000006,673.2824758000006,0.40438410000024305,03,001,2022_Jul_06_1558,n_back,2021.2.3,60.017345012903746,
ZB-match_4-16571317865062299.csv,9,0,left,4,0,8,8,8,0,17,17,17,676.7825290000001,677.2825193000008,left,1,676.7825290000001,676.7825290000001,0.39238579999982903,03,001,2022_Jul_06_1558,n_back,2021.2.3,60.017345012903746,
ZB-match_4-16571317865062299.csv,7,0,left,4,0,8,8,8,0,18,18,18,680.2825896000004,680.7825702,left,1,680.2825896000004,680.2825896000004,0.3804685999994035,03,001,2022_Jul_06_1558,n_back,2021.2.3,60.017345012903746,
ZB-match_4-16571317865062299.csv,4,1,right,4,0,8,8,8,0,19,19,19,683.7826239000005,684.2826427000009,right,1,683.7826239000005,683.7826239000005,0.4323044000002483,03,001,2022_Jul_06_1558,n_back,2021.2.3,60.017345012903746,
ZB-match_4-16571317865062299.csv,,,,,0,8,8,8,,,,,,,,,,,,03,001,2022_Jul_06_1558,n_back,2021.2.3,60.017345012903746,
